timestamp,gyro_x,gyro_y,gyro_z,acc_x,acc_y,acc_z,temp
2025-10-20T16:29:57.681255,4.312977099236641,1.900763358778626,-0.8015267175572519,0.3806780639648437,0.11731588134765625,8.975862023925782,29.659411764705883
2025-10-20T16:29:57.706779,4.282442748091603,1.9236641221374047,-0.9389312977099237,-0.06464344482421874,-0.22505495605468748,9.49300958251953,30.459411764705884
2025-10-20T16:29:57.725614,3.984732824427481,0.8854961832061069,-1.3282442748091603,0.09337386474609374,0.22744915771484372,9.540893615722656,29.000588235294117
2025-10-20T16:29:57.744985,4.358778625954199,0.9770992366412213,-1.5954198473282444,0.023942016601562498,-0.1484405029296875,8.882488159179687,29.800588235294118
2025-10-20T16:29:57.767142,4.0458015267175576,0.4351145038167939,-2.2595419847328246,0.4333505004882812,-0.028730419921875,9.04050546875,29.659411764705883
2025-10-20T16:29:57.785653,5.854961832061068,1.0687022900763359,-2.66412213740458,0.29927520751953124,-0.1292868896484375,9.145850341796875,30.459411764705884
2025-10-20T16:29:57.804405,3.2213740458015265,0.7557251908396947,-3.687022900763359,0.296881005859375,-0.12689268798828124,9.129090930175781,29.706470588235295
2025-10-20T16:29:57.826398,3.572519083969466,0.4122137404580153,-4.557251908396947,0.20829554443359374,0.316034619140625,9.45470235595703,30.459411764705884
2025-10-20T16:29:57.845746,2.1755725190839694,0.366412213740458,-5.221374045801527,0.38307226562499996,0.011971008300781249,9.251195214843749,29.000588235294117
2025-10-20T16:29:57.863528,1.8854961832061068,0.6564885496183206,-5.801526717557252,0.3016694091796875,0.33039982910156246,9.562441430664062,29.000588235294117
2025-10-20T16:29:57.885466,-2.366412213740458,1.099236641221374,-5.99236641221374,0.2657563842773437,0.3399766357421875,9.49300958251953,29.753529411764706
2025-10-20T16:29:57.906095,-5.0,1.1908396946564885,-5.862595419847328,0.3591302490234375,0.30406361083984373,9.119514123535156,29.000588235294117
2025-10-20T16:29:57.922935,-6.8320610687022905,0.8396946564885496,-6.2748091603053435,0.033518823242187495,0.22744915771484372,9.380482104492186,29.84764705882353
2025-10-20T16:29:57.944829,-5.9541984732824424,3.0916030534351147,-6.396946564885496,0.6655880615234374,-0.43574470214843747,9.356540087890625,29.753529411764706
2025-10-20T16:29:57.966706,-8.98473282442748,0.9541984732824428,-6.854961832061068,0.6751648681640625,0.19871873779296872,9.121908325195312,30.459411764705884
2025-10-20T16:29:57.983519,-9.610687022900763,1.6030534351145038,-6.519083969465649,0.18435352783203124,0.51714755859375,9.576806640625,29.706470588235295
2025-10-20T16:29:58.005845,-10.068702290076336,1.183206106870229,-6.251908396946565,0.7302315063476562,-0.0909796630859375,9.387664709472656,29.04764705882353
2025-10-20T16:29:58.028179,-9.50381679389313,1.8625954198473282,-6.297709923664122,0.3854664672851562,0.06943184814453125,9.090783703613281,29.000588235294117
2025-10-20T16:29:58.044984,-7.9465648854961835,0.05343511450381679,-7.801526717557252,-0.06703764648437499,-0.13168109130859373,9.313444458007812,30.459411764705884
2025-10-20T16:29:58.066657,-7.282442748091603,0.6870229007633588,-5.648854961832061,-0.2346317626953125,-0.29927520751953124,9.167398156738281,29.000588235294117
2025-10-20T16:29:58.089720,-6.343511450381679,1.8549618320610688,-5.450381679389313,0.03591302490234375,0.16998831787109375,9.392453112792968,29.753529411764706
2025-10-20T16:29:58.106553,-5.412213740458015,-0.25190839694656486,-5.251908396946565,0.0047884033203125,0.18914193115234373,9.215282189941405,29.753529411764706
2025-10-20T16:29:58.127515,-5.061068702290076,-0.6641221374045801,-4.9541984732824424,-0.3184288208007812,-0.040701428222656245,9.191340173339842,29.000588235294117
2025-10-20T16:29:58.150458,-3.7938931297709924,-0.015267175572519083,-5.076335877862595,0.01915361328125,0.181959326171875,9.536105212402344,29.000588235294117
2025-10-20T16:29:58.168113,-3.2977099236641223,-1.1603053435114503,-4.763358778625954,0.07422025146484375,0.055066638183593745,9.5001921875,30.412352941176472
2025-10-20T16:29:58.187640,-4.0534351145038165,-0.4198473282442748,-4.709923664122138,-0.3064578125,-0.0047884033203125,9.643844287109374,29.659411764705883
2025-10-20T16:29:58.210163,-4.351145038167939,-0.7251908396946565,-4.778625954198473,0.11731588134765625,0.24181436767578124,9.617508068847656,29.706470588235295
2025-10-20T16:29:58.229282,-3.4427480916030535,-1.0305343511450382,-4.541984732824427,-0.00718260498046875,-0.06943184814453125,9.603142858886718,29.000588235294117
2025-10-20T16:29:58.247604,-4.290076335877862,-0.7709923664122137,-4.801526717557252,0.08379705810546874,0.00239420166015625,9.188945971679686,29.659411764705883
2025-10-20T16:29:58.270636,-5.801526717557252,-1.3587786259541985,-4.923664122137405,0.17477672119140625,0.023942016601562498,9.540893615722656,29.706470588235295
2025-10-20T16:29:58.290462,-3.763358778625954,-0.7404580152671756,-4.6183206106870225,0.047884033203124995,-0.08379705810546874,9.636661682128906,29.753529411764706
2025-10-20T16:29:58.308088,-3.732824427480916,-0.6564885496183206,-5.0458015267175576,0.181959326171875,-0.086191259765625,9.552864624023437,29.706470588235295
2025-10-20T16:29:58.329911,-4.114503816793893,0.17557251908396945,-5.076335877862595,0.22026655273437498,0.14125789794921875,9.315838659667968,29.753529411764706
2025-10-20T16:29:58.350192,-2.50381679389313,0.40458015267175573,-4.847328244274809,0.21068974609375,-0.41898529052734373,9.318232861328125,29.09470588235294
2025-10-20T16:29:58.367211,-3.4122137404580153,0.6870229007633588,-5.343511450381679,0.28969840087890625,0.05985504150390625,9.172186560058593,29.000588235294117
2025-10-20T16:29:58.388927,-3.8625954198473282,0.8931297709923665,-5.435114503816794,0.11252747802734374,-0.30406361083984373,9.617508068847656,29.84764705882353
2025-10-20T16:29:58.410396,-1.83206106870229,0.6106870229007634,-5.511450381679389,0.01915361328125,-0.373495458984375,9.478644372558593,29.000588235294117
2025-10-20T16:29:58.427193,-0.9465648854961832,1.015267175572519,-5.435114503816794,0.076614453125,-0.469263525390625,9.334992272949219,29.61235294117647
2025-10-20T16:29:58.448959,-0.916030534351145,0.9465648854961832,-5.4961832061068705,0.08858546142578125,-0.39743747558593745,9.131485131835937,29.89470588235294
2025-10-20T16:29:58.471671,0.42748091603053434,0.7175572519083969,-5.801526717557252,0.143652099609375,-0.08379705810546874,9.210493786621093,29.04764705882353
2025-10-20T16:29:58.488466,0.7786259541984732,0.7251908396946565,-5.816793893129771,0.2059013427734375,-0.373495458984375,9.356540087890625,29.61235294117647
2025-10-20T16:29:58.509638,1.3282442748091603,1.0305343511450382,-5.67175572519084,0.12449848632812499,-0.3136404174804687,9.418789331054686,30.459411764705884
2025-10-20T16:29:58.532689,1.1450381679389312,1.3740458015267176,-5.679389312977099,0.031124621582031248,-0.22744915771484372,9.306261853027344,29.753529411764706
2025-10-20T16:29:58.549907,0.6259541984732825,1.9465648854961832,-5.4961832061068705,0.18435352783203124,-0.17956512451171874,9.215282189941405,29.659411764705883
2025-10-20T16:29:58.569725,-0.2900763358778626,1.4351145038167938,-5.396946564885496,0.07900865478515624,-0.26336218261718747,9.251195214843749,29.09470588235294
2025-10-20T16:29:58.592046,-0.7480916030534351,2.0916030534351147,-5.290076335877862,0.07422025146484375,-0.023942016601562498,9.404424121093749,29.706470588235295
2025-10-20T16:29:58.610110,-1.1145038167938932,1.7099236641221374,-5.129770992366412,0.11013327636718749,-0.2825157958984375,9.303867651367186,29.000588235294117
2025-10-20T16:29:58.629087,-1.9541984732824427,1.8931297709923665,-5.152671755725191,0.05985504150390625,-0.031124621582031248,9.342174877929686,29.659411764705883
2025-10-20T16:29:58.652479,-3.351145038167939,2.068702290076336,-5.022900763358779,-0.009576806640625,-0.09576806640624999,9.229647399902344,30.36529411764706
2025-10-20T16:29:58.671902,-5.206106870229007,1.3129770992366412,-4.854961832061068,0.21787235107421873,-0.00718260498046875,9.3086560546875,30.36529411764706
2025-10-20T16:29:58.689788,-6.641221374045801,1.2671755725190839,-4.793893129770993,0.03591302490234375,-0.1005564697265625,9.366116894531249,29.659411764705883
2025-10-20T16:29:58.712012,-7.106870229007634,1.2290076335877862,-4.709923664122138,0.086191259765625,-0.09576806640624999,9.3852705078125,29.753529411764706
2025-10-20T16:29:58.732683,-7.984732824427481,0.9389312977099237,-4.961832061068702,0.05027823486328125,-0.2561795776367187,9.050082275390624,29.000588235294117
2025-10-20T16:29:58.749502,-8.679389312977099,0.5648854961832062,-4.816793893129771,0.239420166015625,0.08858546142578125,9.088389501953124,29.753529411764706
2025-10-20T16:29:58.771414,-9.778625954198473,0.9312977099236641,-4.748091603053435,0.14125789794921875,-0.13168109130859373,9.169792358398437,29.753529411764706
2025-10-20T16:29:58.793377,-7.8320610687022905,1.748091603053435,-4.8320610687022905,0.0047884033203125,0.258573779296875,9.411606726074218,29.000588235294117
2025-10-20T16:29:58.810686,-8.229007633587786,0.1450381679389313,-5.351145038167939,0.28012159423828126,-0.3112462158203125,9.358934289550781,29.04764705882353
2025-10-20T16:29:58.832560,-8.694656488549619,0.7251908396946565,-5.221374045801527,-0.09576806640624999,0.32082302246093747,9.334992272949219,29.000588235294117
2025-10-20T16:29:58.855600,-8.870229007633588,0.732824427480916,-5.717557251908397,-0.07900865478515624,0.3591302490234375,9.612719665527344,30.459411764705884
2025-10-20T16:29:58.872449,-11.099236641221374,-0.09923664122137404,-6.0458015267175576,0.2753331909179687,0.7206546997070312,9.6151138671875,29.706470588235295
2025-10-20T16:29:58.893233,-10.82442748091603,-0.2824427480916031,-6.442748091603053,0.076614453125,0.59376201171875,9.710881933593749,29.659411764705883
2025-10-20T16:29:58.915979,-12.419847328244275,-0.22137404580152673,-6.9541984732824424,-0.25139117431640623,0.5195417602539062,9.09796630859375,29.000588235294117
2025-10-20T16:29:58.933231,-12.526717557251908,0.2748091603053435,-7.465648854961832,-0.17238251953125,0.258573779296875,9.557653027343749,29.84764705882353
2025-10-20T16:29:58.953248,-13.458015267175572,0.2824427480916031,-7.641221374045801,-0.22505495605468748,0.09816226806640624,9.3086560546875,29.04764705882353
2025-10-20T16:29:58.975694,-14.419847328244275,0.17557251908396945,-5.893129770992366,-0.055066638183593745,0.0143652099609375,9.622296472167967,29.89470588235294
2025-10-20T16:29:58.993792,-14.740458015267176,0.05343511450381679,-7.778625954198473,-0.09337386474609374,-0.1771709228515625,9.794678991699218,29.04764705882353
2025-10-20T16:29:59.012930,-14.267175572519085,1.0458015267175573,-7.9465648854961835,-0.047884033203124995,-0.11252747802734374,9.504980590820312,29.800588235294118
2025-10-20T16:29:59.035472,-14.82442748091603,0.9083969465648855,-7.702290076335878,0.22744915771484372,-0.33518823242187495,9.516951599121093,29.000588235294117
2025-10-20T16:29:59.054867,-15.083969465648854,1.702290076335878,-7.526717557251908,0.19393033447265623,-0.5458779785156249,9.4618849609375,29.04764705882353
2025-10-20T16:29:59.073119,-15.030534351145038,1.5419847328244274,-7.106870229007634,0.0430956298828125,-0.6727706665039062,9.227253198242186,29.800588235294118
2025-10-20T16:29:59.096925,-13.816793893129772,0.648854961832061,-6.450381679389313,0.47884033203125,-1.1133037719726562,9.744400756835937,29.659411764705883
2025-10-20T16:29:59.117140,-10.198473282442748,1.7099236641221374,-6.244274809160306,0.23702596435546874,-1.9033903198242186,9.296685046386719,29.000588235294117
2025-10-20T16:29:59.134121,-4.541984732824427,0.9312977099236641,-6.099236641221374,0.00239420166015625,-2.3678654418945313,8.59997236328125,29.753529411764706
2025-10-20T16:29:59.155827,1.7938931297709924,0.2748091603053435,-5.480916030534351,-0.033518823242187495,-2.4947581298828125,8.726865051269531,29.000588235294117
2025-10-20T16:29:59.177298,8.80916030534351,-0.7557251908396947,-4.801526717557252,-0.09816226806640624,-2.3726538452148436,8.590395556640624,29.84764705882353
2025-10-20T16:29:59.194151,13.725190839694656,-1.6030534351145038,-3.9160305343511452,0.2609679809570312,-1.93451494140625,9.222464794921875,29.800588235294118
2025-10-20T16:29:59.216128,17.709923664122137,-1.6564885496183206,-3.427480916030534,0.031124621582031248,-1.4221557861328125,8.846575134277343,29.800588235294118
2025-10-20T16:29:59.238899,23.236641221374047,-0.3282442748091603,-2.885496183206107,0.19632453613281248,-2.597708801269531,8.80347950439453,29.84764705882353
2025-10-20T16:29:59.255727,17.595419847328245,-0.19083969465648856,-2.2442748091603053,0.3184288208007812,-0.14125789794921875,8.2360537109375,29.753529411764706
2025-10-20T16:29:59.276975,18.412213740458014,-1.3435114503816794,-1.5419847328244274,0.0526724365234375,0.06943184814453125,9.801861596679688,29.706470588235295
2025-10-20T16:29:59.300061,12.458015267175572,2.1526717557251906,-1.1755725190839694,-0.10295067138671875,-0.05985504150390625,9.706093530273437,30.412352941176472
2025-10-20T16:29:59.317321,6.862595419847328,0.6259541984732825,-0.5954198473282443,-0.13407529296874998,0.11013327636718749,9.433154541015625,29.659411764705883
2025-10-20T16:29:59.337235,1.7786259541984732,0.916030534351145,-0.8778625954198473,-0.12689268798828124,0.3447650390625,9.452308154296874,29.706470588235295
2025-10-20T16:29:59.359564,-0.015267175572519083,1.816793893129771,-1.3435114503816794,0.03591302490234375,0.047884033203124995,9.617508068847656,29.706470588235295
2025-10-20T16:29:59.377643,-2.5114503816793894,0.10687022900763359,-1.7251908396946565,-0.20350714111328125,-0.26336218261718747,9.217676391601563,30.459411764705884
2025-10-20T16:29:59.396698,-3.0763358778625953,0.4961832061068702,-3.9083969465648853,-0.51714755859375,-0.47644613037109373,9.708487731933593,29.753529411764706
2025-10-20T16:29:59.418774,-4.633587786259542,-1.6870229007633588,-2.3587786259541983,-0.2825157958984375,-0.9528922607421875,9.133879333496093,30.459411764705884
2025-10-20T16:29:59.438118,-3.381679389312977,-0.015267175572519083,-2.480916030534351,-0.2657563842773437,-0.7493851196289062,9.236830004882812,29.000588235294117
2025-10-20T16:29:59.455929,-3.015267175572519,-0.10687022900763359,-2.687022900763359,-0.4165910888671875,-0.40462008056640625,9.627084875488281,29.659411764705883
2025-10-20T16:29:59.477950,-0.42748091603053434,-0.022900763358778626,-2.946564885496183,-0.1197100830078125,-0.4477157104492187,9.327809667968749,29.706470588235295
2025-10-20T16:29:59.498561,-0.648854961832061,-0.2824427480916031,-2.946564885496183,0.28490999755859375,0.13407529296874998,9.497797985839844,29.753529411764706
2025-10-20T16:29:59.515422,-3.801526717557252,0.9694656488549618,-2.4885496183206106,0.11013327636718749,0.7924807495117187,9.737218151855469,29.800588235294118
2025-10-20T16:29:59.537146,-9.564885496183207,1.6641221374045803,-2.198473282442748,0.1292868896484375,0.8762778076171874,9.670180505371093,30.36529411764706
2025-10-20T16:29:59.559019,-15.34351145038168,2.717557251908397,-2.0839694656488548,0.076614453125,0.9840168823242187,10.108319409179687,29.04764705882353
2025-10-20T16:29:59.575841,-20.458015267175572,1.2061068702290076,-2.4732824427480917,0.5770026000976562,0.6177040283203125,10.429142431640624,30.459411764705884
2025-10-20T16:29:59.597498,-23.17557251908397,2.572519083969466,-2.3587786259541983,0.7805097412109374,0.7278373046875,10.160991845703125,29.706470588235295
2025-10-20T16:29:59.620223,-28.251908396946565,1.0381679389312977,-2.4656488549618323,0.737414111328125,-0.36631285400390623,9.785102185058593,29.706470588235295
2025-10-20T16:29:59.637073,-31.49618320610687,3.8396946564885495,-2.213740458015267,0.35673604736328124,-0.5363011718749999,9.677363110351562,29.09470588235294
2025-10-20T16:29:59.658313,-33.847328244274806,1.6717557251908397,-1.9083969465648856,0.15322890625,-0.7805097412109374,9.60793126220703,29.04764705882353
2025-10-20T16:29:59.681040,-35.083969465648856,3.7022900763358777,-1.3206106870229009,0.1867477294921875,-0.9720458740234375,9.641450085449218,29.04764705882353
2025-10-20T16:29:59.697908,-37.01526717557252,4.870229007633588,-0.8625954198473282,-0.03591302490234375,-1.254561669921875,9.064447485351561,29.753529411764706
2025-10-20T16:29:59.718398,-35.12977099236641,5.076335877862595,-0.29770992366412213,0.40462008056640625,-1.4724340209960938,8.935160595703124,30.412352941176472
2025-10-20T16:29:59.740965,-33.83206106870229,6.145038167938932,0.2366412213740458,0.277727392578125,-1.1707646118164061,9.165003955078124,29.706470588235295
2025-10-20T16:29:59.758774,-32.80916030534351,6.1679389312977095,0.8854961832061069,0.02633621826171875,-1.4317325927734375,8.908824377441405,29.706470588235295
2025-10-20T16:29:59.778347,-30.412213740458014,4.9465648854961835,1.3282442748091603,0.06943184814453125,-1.618480322265625,8.992621435546875,29.84764705882353
2025-10-20T16:29:59.800871,-28.38167938931298,5.190839694656488,1.6106870229007633,-0.033518823242187495,-1.649604943847656,9.0788126953125,29.04764705882353
2025-10-20T16:29:59.819808,-26.68702290076336,4.297709923664122,1.9770992366412214,-0.19632453613281248,-1.254561669921875,8.901641772460938,30.459411764705884
2025-10-20T16:29:59.838163,-25.106870229007633,3.1908396946564888,1.9312977099236641,-0.07900865478515624,-1.47482822265625,8.762778076171875,29.000588235294117
2025-10-20T16:29:59.860298,-24.19083969465649,2.9923664122137406,1.7328244274809161,-0.16759411621093748,-1.1731588134765625,8.451531860351562,29.706470588235295
2025-10-20T16:29:59.880556,-22.251908396946565,2.2290076335877864,1.2595419847328244,-0.411802685546875,-1.2497732666015624,8.913612780761719,29.000588235294117
2025-10-20T16:29:59.897458,-19.61832061068702,0.8702290076335878,0.5190839694656488,-0.16759411621093748,-1.458068811035156,9.004592443847656,29.706470588235295
2025-10-20T16:29:59.919249,-19.0,1.0381679389312977,-0.10687022900763359,-0.29927520751953124,-1.6017209106445311,8.805873706054687,29.09470588235294
2025-10-20T16:29:59.940718,-18.374045801526716,1.5572519083969465,-0.8320610687022901,-0.0718260498046875,-1.6136919189453125,8.633491186523438,29.000588235294117
2025-10-20T16:29:59.957550,-16.419847328244273,1.7404580152671756,-1.6641221374045803,-0.17956512451171874,-1.8148048583984373,8.664615808105468,29.04764705882353
2025-10-20T16:29:59.979331,-15.32824427480916,0.2824427480916031,-2.1603053435114505,-0.033518823242187495,-2.0973206542968748,8.635885388183594,29.706470588235295
2025-10-20T16:30:00.002056,-13.305343511450381,2.633587786259542,-2.7709923664122136,-0.1771709228515625,-2.365471240234375,8.396465222167969,29.000588235294117
2025-10-20T16:30:00.018880,-10.083969465648854,1.5190839694656488,-3.114503816793893,-0.25139117431640623,-2.2194249389648437,8.980650427246093,29.000588235294117
2025-10-20T16:30:00.040053,-5.977099236641221,1.5801526717557253,-3.0229007633587788,-0.38307226562499996,-2.138022082519531,9.267954626464844,29.000588235294117
2025-10-20T16:30:00.063671,-7.267175572519084,1.8473282442748091,-2.801526717557252,-0.1771709228515625,-2.059013427734375,8.238447912597655,30.412352941176472
2025-10-20T16:30:00.080929,-5.068702290076335,0.9618320610687023,-2.4885496183206106,-0.2753331909179687,-2.0063409912109376,9.172186560058593,29.753529411764706
2025-10-20T16:30:00.101327,-2.404580152671756,-1.6030534351145038,-2.435114503816794,0.2537853759765625,-2.530671154785156,8.971073620605468,29.800588235294118
2025-10-20T16:30:00.123939,1.633587786259542,-0.31297709923664124,-1.9083969465648856,0.3112462158203125,-2.7724855224609373,8.765172277832031,29.04764705882353
2025-10-20T16:30:00.142441,3.7022900763358777,-1.5648854961832062,-1.381679389312977,0.3399766357421875,-2.5665841796874997,9.088389501953124,29.04764705882353
2025-10-20T16:30:00.161066,4.190839694656488,-0.7404580152671756,-0.6564885496183206,0.0526724365234375,-2.3535002319335936,9.205705383300781,29.000588235294117
2025-10-20T16:30:00.183230,4.633587786259542,-1.0229007633587786,-0.022900763358778626,0.07422025146484375,-2.3223756103515623,9.270348828125,30.412352941176472
2025-10-20T16:30:00.202999,5.282442748091603,-1.5038167938931297,0.7404580152671756,-0.20829554443359374,-2.592920397949219,8.731653454589843,29.000588235294117
2025-10-20T16:30:00.220467,6.229007633587786,-0.4351145038167939,1.3740458015267176,-0.086191259765625,-2.7940333374023436,8.705317236328124,29.000588235294117
2025-10-20T16:30:00.242282,4.816793893129771,-1.2748091603053435,2.33587786259542,-0.13646949462890623,-2.511517541503906,9.131485131835937,30.459411764705884
2025-10-20T16:30:00.263310,0.015267175572519083,-0.648854961832061,2.9923664122137406,0.09576806640624999,-1.8938135131835936,9.991003527832031,29.000588235294117
2025-10-20T16:30:00.280129,-2.8396946564885495,1.2366412213740459,3.519083969465649,-0.48123453369140623,-2.2840683837890623,9.440337145996093,29.659411764705883
2025-10-20T16:30:00.302018,-4.862595419847328,0.40458015267175573,3.786259541984733,0.1484405029296875,-2.0925322509765625,9.375693701171874,30.459411764705884
2025-10-20T16:30:00.324318,-6.137404580152672,1.8854961832061068,4.2748091603053435,-0.8547299926757812,-2.360682836914062,8.59278975830078,29.706470588235295
2025-10-20T16:30:00.341185,-3.351145038167939,-0.1297709923664122,4.183206106870229,-0.1771709228515625,-2.8323405639648436,9.840168823242188,30.459411764705884
2025-10-20T16:30:00.362802,-2.984732824427481,0.04580152671755725,4.564885496183206,-0.3327940307617187,-2.5953145996093747,9.76116016845703,30.459411764705884
2025-10-20T16:30:00.385941,-2.213740458015267,1.83206106870229,4.625954198473282,-0.1867477294921875,-2.4947581298828125,8.55448253173828,29.753529411764706
2025-10-20T16:30:00.402768,0.4732824427480916,0.7938931297709924,4.473282442748092,-0.26815058593749996,-2.2864625854492187,9.220070593261719,29.706470588235295
2025-10-20T16:30:00.423110,5.061068702290076,-1.8473282442748091,3.9923664122137406,-0.20829554443359374,-2.43250888671875,8.853757739257812,29.659411764705883
2025-10-20T16:30:00.445579,8.50381679389313,-0.10687022900763359,3.877862595419847,-0.2561795776367187,-3.0334535034179684,9.212887988281249,29.000588235294117
2025-10-20T16:30:00.463661,13.404580152671755,-1.3587786259541985,3.1908396946564888,-0.12449848632812499,-2.442085693359375,9.018957653808593,29.800588235294118
2025-10-20T16:30:00.483187,15.099236641221374,-0.19083969465648856,2.83206106870229,-0.19871873779296872,-2.2744915771484373,8.88009395751953,30.459411764705884
2025-10-20T16:30:00.505701,16.587786259541986,-1.4274809160305344,2.6106870229007635,-0.0718260498046875,-1.9752163696289062,9.18655177001953,29.753529411764706
2025-10-20T16:30:00.524637,18.419847328244273,-1.6946564885496183,2.351145038167939,-0.143652099609375,-1.6543933471679686,9.514557397460937,30.412352941176472
2025-10-20T16:30:00.542847,20.083969465648856,-3.8625954198473282,2.33587786259542,-0.00239420166015625,-1.7741034301757812,9.9981861328125,29.753529411764706
2025-10-20T16:30:00.564939,17.396946564885496,-0.9389312977099237,2.5572519083969465,-0.04548983154296875,-2.4947581298828125,9.449913952636718,30.459411764705884
2025-10-20T16:30:00.585120,11.053435114503817,-0.2824427480916031,2.5419847328244276,0.49320554199218747,-1.3335703247070312,9.349357482910156,29.04764705882353
2025-10-20T16:30:00.602097,6.778625954198473,-2.3587786259541983,2.946564885496183,-0.45968671875,-1.120486376953125,9.950302099609374,29.706470588235295
2025-10-20T16:30:00.623895,3.0916030534351147,0.7938931297709924,2.9770992366412212,0.63206923828125,-1.6352397338867186,9.452308154296874,29.753529411764706
2025-10-20T16:30:00.645350,-0.33587786259541985,1.381679389312977,3.366412213740458,0.016759411621093748,-1.4724340209960938,9.476250170898437,29.753529411764706
2025-10-20T16:30:00.662142,-1.633587786259542,0.8931297709923665,3.2061068702290076,-0.13407529296874998,-1.4053963745117186,9.133879333496093,29.659411764705883
2025-10-20T16:30:00.683966,-2.480916030534351,0.061068702290076333,3.4122137404580153,-0.00239420166015625,-1.2761094848632812,9.9215716796875,29.04764705882353
2025-10-20T16:30:00.706389,-6.488549618320611,1.5419847328244274,3.5801526717557253,0.35673604736328124,-1.3024457031249999,9.478644372558593,29.706470588235295
2025-10-20T16:30:00.723277,-8.236641221374045,-0.16793893129770993,4.122137404580153,0.5027823486328125,-1.4221557861328125,9.459490759277344,29.000588235294117
2025-10-20T16:30:00.744909,-6.969465648854962,2.7786259541984735,4.213740458015267,0.1292868896484375,-1.7956512451171873,9.344569079589844,29.753529411764706
2025-10-20T16:30:00.768042,-1.1526717557251909,2.3893129770992365,3.4427480916030535,0.277727392578125,-1.4437036010742186,9.512163195800781,29.000588235294117
2025-10-20T16:30:00.784876,1.8244274809160306,1.4045801526717556,3.2595419847328246,0.26336218261718747,-1.3958195678710936,8.418013037109375,29.753529411764706
2025-10-20T16:30:00.805622,3.648854961832061,-0.7938931297709924,2.9083969465648853,0.2920926025390625,-1.8363526733398436,8.961496813964843,29.800588235294118
2025-10-20T16:30:00.828561,8.15267175572519,1.8015267175572518,2.2748091603053435,0.3136404174804687,-1.3168109130859373,8.94473740234375,29.706470588235295
2025-10-20T16:30:00.845794,11.50381679389313,0.10687022900763359,1.6488549618320612,-0.08379705810546874,-1.2497732666015624,8.748412866210938,29.800588235294118
2025-10-20T16:30:00.865899,14.870229007633588,-0.732824427480916,0.9465648854961832,-0.07422025146484375,-1.1875240234375,8.55448253173828,29.659411764705883
2025-10-20T16:30:00.888529,19.16793893129771,-0.8625954198473282,1.9389312977099236,-0.11013327636718749,-0.5770026000976562,8.647856396484375,29.706470588235295
2025-10-20T16:30:00.907090,21.0381679389313,-1.5725190839694656,-0.6946564885496184,-0.1771709228515625,-0.5530605834960938,8.951920007324219,29.753529411764706
2025-10-20T16:30:00.925836,21.35114503816794,-1.465648854961832,-1.534351145038168,-0.1867477294921875,-0.2825157958984375,9.138667736816405,30.459411764705884
2025-10-20T16:30:00.948021,20.900763358778626,-1.4198473282442747,-2.3435114503816794,-0.28969840087890625,-0.05027823486328125,9.160215551757812,30.459411764705884
2025-10-20T16:30:00.967845,20.412213740458014,-2.1755725190839694,-2.946564885496183,-0.16280571289062498,-0.08379705810546874,9.133879333496093,29.753529411764706
2025-10-20T16:30:00.985270,19.793893129770993,-2.1297709923664123,-1.9618320610687023,-0.143652099609375,0.20350714111328125,9.217676391601563,30.459411764705884
2025-10-20T16:30:01.007100,18.374045801526716,-2.2061068702290076,-4.603053435114504,-0.28490999755859375,0.19871873779296872,9.306261853027344,30.412352941176472
2025-10-20T16:30:01.028144,15.32824427480916,-2.7709923664122136,-5.129770992366412,-0.20350714111328125,0.2442085693359375,9.516951599121093,29.800588235294118
2025-10-20T16:30:01.044993,11.511450381679388,-2.3893129770992365,-5.603053435114504,-0.21068974609375,0.17238251953125,9.430760339355468,29.84764705882353
2025-10-20T16:30:01.066777,9.32824427480916,-2.8396946564885495,-5.847328244274809,0.239420166015625,-0.086191259765625,9.181763366699219,29.04764705882353
2025-10-20T16:30:01.089432,5.9465648854961835,-0.21374045801526717,-6.244274809160306,0.02154781494140625,-0.12689268798828124,9.210493786621093,29.09470588235294
2025-10-20T16:30:01.106706,4.770992366412214,-0.8931297709923665,-6.404580152671755,-0.2705447875976562,-0.48123453369140623,9.624690673828125,29.800588235294118
2025-10-20T16:30:01.128566,3.0,-1.9770992366412214,-6.396946564885496,0.040701428222656245,-0.9050082275390624,9.208099584960937,30.412352941176472
2025-10-20T16:30:01.150479,1.5725190839694656,-1.3435114503816794,-6.465648854961832,0.10773907470703124,-0.9026140258789062,9.41639512939453,29.000588235294117
2025-10-20T16:30:01.167313,0.5572519083969466,-0.8778625954198473,-6.068702290076335,0.02633621826171875,-1.1947066284179686,9.241618408203124,29.706470588235295
2025-10-20T16:30:01.189135,1.7709923664122138,-0.07633587786259542,-5.923664122137405,0.22266075439453123,-1.3479355346679687,9.102754711914063,30.459411764705884
2025-10-20T16:30:01.212255,2.900763358778626,-0.6335877862595419,-5.564885496183206,0.24660277099609373,-1.3407529296874998,9.210493786621093,30.459411764705884
2025-10-20T16:30:01.229119,4.343511450381679,-0.3969465648854962,-5.145038167938932,0.13168109130859373,-1.2617442749023438,9.246406811523437,29.84764705882353
2025-10-20T16:30:01.250083,4.870229007633588,-0.6259541984732825,-4.564885496183206,0.00718260498046875,-1.4532804077148436,9.253589416503905,29.000588235294117
2025-10-20T16:30:01.273067,6.32824427480916,-0.9007633587786259,-3.931297709923664,0.05027823486328125,-1.5155296508789062,9.22485899658203,30.459411764705884
2025-10-20T16:30:01.290732,8.030534351145038,-0.6259541984732825,-3.549618320610687,-0.02633621826171875,-1.1827356201171875,9.327809667968749,29.753529411764706
2025-10-20T16:30:01.310275,9.022900763358779,-0.6793893129770993,-3.0,-0.009576806640625,-1.024718310546875,9.234435803222656,29.800588235294118
2025-10-20T16:30:01.332783,11.709923664122137,-0.19083969465648856,-2.7938931297709924,-0.1197100830078125,-0.8571241943359375,9.313444458007812,29.04764705882353
2025-10-20T16:30:01.351707,9.572519083969466,-0.6412213740458015,-2.5419847328244276,0.1388636962890625,-0.6655880615234374,9.430760339355468,30.459411764705884
2025-10-20T16:30:01.369934,8.946564885496183,-0.5648854961832062,-2.2519083969465647,0.04548983154296875,-0.4572925170898437,9.543287817382812,29.753529411764706
2025-10-20T16:30:01.392078,6.679389312977099,-1.8702290076335877,-2.114503816793893,-0.07422025146484375,-0.35673604736328124,9.560047229003906,29.753529411764706
2025-10-20T16:30:01.412271,5.183206106870229,0.4580152671755725,-2.1526717557251906,0.105344873046875,-0.028730419921875,9.753977563476562,29.659411764705883
2025-10-20T16:30:01.429286,2.7557251908396947,0.15267175572519084,-2.2061068702290076,0.040701428222656245,-0.11731588134765625,9.540893615722656,29.753529411764706
2025-10-20T16:30:01.451031,-0.3511450381679389,0.5038167938931297,-2.564885496183206,-0.0430956298828125,0.34715924072265625,9.610325463867188,30.412352941176472
2025-10-20T16:30:01.472496,-4.106870229007634,0.8549618320610687,-2.801526717557252,-0.076614453125,0.1771709228515625,9.718064538574218,29.800588235294118
2025-10-20T16:30:01.489421,-8.893129770992367,2.1374045801526718,-3.404580152671756,-0.11252747802734374,-0.10295067138671875,9.315838659667968,29.000588235294117
2025-10-20T16:30:01.511369,-11.450381679389313,2.50381679389313,-3.984732824427481,0.13168109130859373,0.4836287353515625,9.852139831542969,29.000588235294117
2025-10-20T16:30:01.534112,-14.80916030534351,1.9236641221374047,-4.541984732824427,-0.076614453125,0.22505495605468748,9.655815295410155,29.000588235294117
2025-10-20T16:30:01.550990,-18.709923664122137,0.022900763358778626,-5.106870229007634,-0.239420166015625,0.3112462158203125,9.583989245605467,30.459411764705884
2025-10-20T16:30:01.572292,-21.068702290076335,1.6259541984732824,-6.297709923664122,-0.46686932373046874,0.17477672119140625,8.717288244628906,29.659411764705883
2025-10-20T16:30:01.595330,-19.81679389312977,0.21374045801526717,-6.931297709923665,-0.15083470458984374,0.2825157958984375,9.586383447265625,30.459411764705884
2025-10-20T16:30:01.612562,-21.66412213740458,0.9236641221374046,-7.854961832061068,-0.488417138671875,-0.09816226806640624,9.624690673828125,29.800588235294118
2025-10-20T16:30:01.632510,-20.49618320610687,1.2213740458015268,-8.404580152671755,0.07900865478515624,-0.6967126831054687,9.892841259765625,30.459411764705884
2025-10-20T16:30:01.655083,-19.03053435114504,2.4885496183206106,-9.183206106870228,-0.4836287353515625,-0.7996633544921875,9.076418493652342,29.753529411764706
2025-10-20T16:30:01.673602,-14.977099236641221,0.8396946564885496,-10.17557251908397,-0.6177040283203125,-0.39264907226562495,8.987833032226561,29.000588235294117
2025-10-20T16:30:01.692269,-11.099236641221374,-0.5267175572519084,-10.740458015267176,-0.5147533569335937,-1.467645617675781,8.923189587402343,29.800588235294118
2025-10-20T16:30:01.714475,-5.938931297709924,0.32061068702290074,-11.030534351145038,0.047884033203124995,-0.8547299926757812,8.832209924316405,29.706470588235295
2025-10-20T16:30:01.734390,-1.9694656488549618,1.6641221374045803,-11.213740458015268,0.24660277099609373,-0.6847416748046875,8.947131604003905,29.800588235294118
2025-10-20T16:30:01.751836,1.4427480916030535,-1.7557251908396947,-11.236641221374045,0.1005564697265625,-0.737414111328125,8.724470849609375,29.04764705882353
2025-10-20T16:30:01.773817,2.5572519083969465,-0.37404580152671757,-10.572519083969466,0.07422025146484375,-1.3144167114257812,8.947131604003905,29.800588235294118
2025-10-20T16:30:01.795084,4.931297709923665,0.19083969465648856,-10.061068702290076,0.4572925170898437,-0.9241618408203125,9.303867651367186,29.706470588235295
2025-10-20T16:30:01.811911,6.442748091603053,-1.5038167938931297,-9.679389312977099,0.09816226806640624,-0.19153613281249998,10.54645831298828,29.753529411764706
2025-10-20T16:30:01.833927,2.183206106870229,-0.1450381679389313,-8.412213740458014,-0.0383072265625,-0.40940848388671874,8.913612780761719,29.659411764705883
2025-10-20T16:30:01.855908,-2.49618320610687,1.9083969465648856,-7.488549618320611,0.08140285644531249,-0.2346317626953125,9.950302099609374,30.459411764705884
2025-10-20T16:30:01.872710,-4.0,-1.183206106870229,-6.984732824427481,0.033518823242187495,-0.6057330200195312,9.581595043945311,29.800588235294118
2025-10-20T16:30:01.894590,-5.770992366412214,0.0916030534351145,-6.152671755725191,0.05985504150390625,-0.9696516723632812,10.35492218017578,30.459411764705884
2025-10-20T16:30:01.917826,-7.824427480916031,0.8778625954198473,-5.687022900763359,-0.15562310791015624,-1.16837041015625,9.026140258789061,29.800588235294118
2025-10-20T16:30:01.934626,-10.450381679389313,0.4732824427480916,-4.786259541984733,-0.15562310791015624,-0.8714894042968749,9.866505041503906,30.459411764705884
2025-10-20T16:30:01.955640,-13.549618320610687,1.213740458015267,-5.816793893129771,-0.086191259765625,-1.3024457031249999,9.660603698730467,29.753529411764706
2025-10-20T16:30:01.978434,-14.267175572519085,1.8549618320610688,-2.66412213740458,0.2561795776367187,-1.3215993164062498,8.798691101074219,29.04764705882353
2025-10-20T16:30:01.995670,-13.885496183206106,1.297709923664122,-2.030534351145038,0.12210428466796874,-2.0542250244140625,8.389282617187499,30.459411764705884
2025-10-20T16:30:02.015621,-9.16030534351145,3.122137404580153,-1.6641221374045803,-0.40940848388671874,-1.5346832641601562,8.743624462890624,29.753529411764706
2025-10-20T16:30:02.038398,-6.526717557251908,3.7404580152671754,-1.1984732824427482,0.05027823486328125,-1.6065093139648436,8.518569506835936,29.706470588235295
2025-10-20T16:30:02.056944,-2.3053435114503817,3.66412213740458,-0.5954198473282443,-0.6248866333007812,-1.8698714965820311,8.889670764160156,30.459411764705884
2025-10-20T16:30:02.075785,-0.6030534351145038,2.885496183206107,-0.0916030534351145,-0.28969840087890625,-1.5490484741210937,9.042899670410156,29.753529411764706
2025-10-20T16:30:02.098057,3.5267175572519083,1.0381679389312977,0.1984732824427481,-0.20350714111328125,-1.4030021728515625,9.334992272949219,29.706470588235295
2025-10-20T16:30:02.117903,5.526717557251908,0.6641221374045801,0.6030534351145038,-0.09337386474609374,-1.4317325927734375,8.959102612304687,29.753529411764706
2025-10-20T16:30:02.135336,8.51908396946565,1.4198473282442747,0.7862595419847328,-0.3950432739257812,-1.0390835205078124,9.287108239746093,29.800588235294118
2025-10-20T16:30:02.157338,8.549618320610687,0.1450381679389313,1.0076335877862594,-0.2920926025390625,-0.7326257080078125,9.478644372558593,29.000588235294117
2025-10-20T16:30:02.178441,6.5038167938931295,-0.48854961832061067,1.297709923664122,-0.047884033203124995,-0.3950432739257812,9.749189160156249,30.459411764705884
2025-10-20T16:30:02.195250,4.908396946564886,-1.786259541984733,1.9770992366412214,0.12210428466796874,-1.446097802734375,8.051700183105469,29.800588235294118
2025-10-20T16:30:02.217048,1.366412213740458,1.213740458015267,1.6793893129770991,-0.3280056274414062,-0.5027823486328125,10.417171423339843,29.753529411764706
2025-10-20T16:30:02.238998,-1.0763358778625953,1.633587786259542,1.3206106870229009,0.49799394531249996,-0.20829554443359374,9.526528405761718,30.412352941176472
2025-10-20T16:30:02.255800,-6.99236641221374,4.32824427480916,0.04580152671755725,-0.22026655273437498,-0.143652099609375,8.781931689453124,29.706470588235295
2025-10-20T16:30:02.277696,-8.587786259541986,2.114503816793893,1.6259541984732824,0.15562310791015624,-0.6967126831054687,9.397241516113281,29.753529411764706
2025-10-20T16:30:02.300840,-8.007633587786259,1.9312977099236641,1.4274809160305344,-0.143652099609375,-0.6200982299804687,9.708487731933593,29.753529411764706
2025-10-20T16:30:02.317645,-11.419847328244275,3.099236641221374,1.0534351145038168,-0.1484405029296875,-0.55545478515625,9.282319836425781,29.753529411764706
2025-10-20T16:30:02.338683,-11.221374045801527,1.3969465648854962,1.3511450381679388,0.5602431884765625,-1.120486376953125,9.203311181640624,29.706470588235295
2025-10-20T16:30:02.361445,-9.969465648854962,3.8702290076335877,0.8473282442748091,0.00239420166015625,-1.2497732666015624,9.255983618164063,29.000588235294117
2025-10-20T16:30:02.378676,-8.038167938931299,1.8702290076335877,0.7709923664122137,0.21308394775390624,-1.2713210815429687,9.315838659667968,29.800588235294118
2025-10-20T16:30:02.398642,-5.267175572519084,2.801526717557252,-0.09923664122137404,-0.09816226806640624,-1.369483349609375,8.951920007324219,29.04764705882353
2025-10-20T16:30:02.421109,-2.6259541984732824,3.8244274809160306,-0.35877862595419846,0.07900865478515624,-1.16837041015625,8.801085302734375,29.04764705882353
2025-10-20T16:30:02.439196,1.5801526717557253,0.11450381679389313,-0.7480916030534351,-0.055066638183593745,-1.1156979736328125,9.126696728515624,29.659411764705883
2025-10-20T16:30:02.458288,3.4122137404580153,1.0534351145038168,-1.4580152671755726,0.35194764404296874,-0.7422025146484375,9.004592443847656,30.459411764705884
2025-10-20T16:30:02.480729,4.809160305343512,0.9465648854961832,-1.6259541984732824,0.29448680419921874,-0.7398083129882812,9.160215551757812,29.04764705882353
2025-10-20T16:30:02.500093,4.320610687022901,0.5343511450381679,-2.0381679389312977,0.201112939453125,-0.7685387329101562,9.179369165039063,29.84764705882353
2025-10-20T16:30:02.517917,4.526717557251908,0.7175572519083969,-2.5419847328244276,-0.6081272216796875,-1.1659762084960936,9.270348828125,29.800588235294118
2025-10-20T16:30:02.539786,5.114503816793893,-0.32061068702290074,-2.6106870229007635,0.1484405029296875,-1.4963760375976562,8.779537487792968,29.753529411764706
2025-10-20T16:30:02.560026,1.1984732824427482,0.5114503816793893,-2.480916030534351,-0.0430956298828125,0.13168109130859373,9.057264880371093,29.753529411764706
2025-10-20T16:30:02.576990,-1.16793893129771,-0.26717557251908397,-2.5267175572519083,0.0143652099609375,-0.1292868896484375,9.246406811523437,29.84764705882353
2025-10-20T16:30:02.598843,-5.061068702290076,1.1755725190839694,-2.519083969465649,0.13407529296874998,-0.4644751220703125,9.509768994140625,29.04764705882353
2025-10-20T16:30:02.620367,-9.282442748091603,0.2748091603053435,-2.564885496183206,0.143652099609375,-0.7685387329101562,9.488221179199218,29.659411764705883
2025-10-20T16:30:02.637179,-13.206106870229007,1.465648854961832,-2.7251908396946565,-0.26815058593749996,-0.7948749511718749,9.677363110351562,29.84764705882353
2025-10-20T16:30:02.659183,-17.47328244274809,3.312977099236641,-2.969465648854962,-0.1484405029296875,-0.7278373046875,9.114725720214842,29.706470588235295
2025-10-20T16:30:02.682060,-20.80916030534351,1.9083969465648856,-2.946564885496183,0.4908113403320312,-0.6607996582031249,9.53131680908203,29.659411764705883
2025-10-20T16:30:02.698910,-21.519083969465647,1.4045801526717556,-2.969465648854962,0.040701428222656245,-1.0558429321289062,9.737218151855469,29.706470588235295
2025-10-20T16:30:02.720362,-23.595419847328245,2.6564885496183206,-3.5572519083969465,-0.0047884033203125,-1.8698714965820311,8.070853796386718,30.459411764705884
2025-10-20T16:30:02.743682,-22.076335877862597,0.549618320610687,-3.8702290076335877,-0.13407529296874998,-1.6041151123046875,8.640673791503906,30.412352941176472
2025-10-20T16:30:02.760570,-19.31297709923664,0.9541984732824428,-4.2748091603053435,0.06464344482421874,-2.039859814453125,9.18655177001953,29.800588235294118
2025-10-20T16:30:02.781320,-16.419847328244273,2.1603053435114505,-4.374045801526718,-0.7230489013671875,-1.649604943847656,8.339004382324218,29.753529411764706
2025-10-20T16:30:02.804392,-10.778625954198473,1.2671755725190839,-4.778625954198473,-0.016759411621093748,-2.147598889160156,8.655039001464843,29.800588235294118
2025-10-20T16:30:02.822152,-4.778625954198473,0.9312977099236641,-4.916030534351145,-0.7876923461914062,-2.1978771240234374,9.066841687011719,29.800588235294118
2025-10-20T16:30:02.842029,-1.534351145038168,-0.48854961832061067,-4.816793893129771,-0.6703764648437499,-1.20667763671875,8.908824377441405,29.753529411764706
2025-10-20T16:30:02.864924,1.9312977099236641,-0.366412213740458,-4.793893129770993,-0.4261678955078125,-0.5889736083984375,9.560047229003906,29.000588235294117
2025-10-20T16:30:02.883990,-2.183206106870229,1.6793893129770991,-4.450381679389313,-0.7038952880859375,-0.20350714111328125,9.519345800781249,30.459411764705884
2025-10-20T16:30:02.902461,-4.068702290076335,0.5572519083969466,-4.1679389312977095,-0.5961562133789062,0.00718260498046875,9.253589416503905,29.800588235294118
2025-10-20T16:30:02.924934,-7.259541984732825,1.2442748091603053,-4.068702290076335,-0.6823474731445313,0.2346317626953125,9.734823950195311,29.800588235294118
2025-10-20T16:30:02.945299,-14.473282442748092,2.7557251908396947,-4.106870229007634,-0.5434837768554687,-0.09576806640624999,9.878476049804688,29.000588235294117
2025-10-20T16:30:02.962521,-18.65648854961832,2.49618320610687,-4.114503816793893,-0.4477157104492187,-0.9121908325195311,9.41639512939453,29.753529411764706
2025-10-20T16:30:02.984356,-19.66412213740458,0.8473282442748091,-3.877862595419847,-0.15562310791015624,-1.7022773803710936,9.390058911132812,29.706470588235295
2025-10-20T16:30:03.005928,-23.022900763358777,0.9541984732824428,-4.404580152671755,-0.01915361328125,-2.1547814941406247,9.787496386718749,29.753529411764706
2025-10-20T16:30:03.022873,-23.015267175572518,0.8473282442748091,-3.7022900763358777,0.08379705810546874,-2.7341782958984373,8.789114294433594,30.459411764705884
2025-10-20T16:30:03.044924,-20.625954198473284,0.4961832061068702,-3.564885496183206,0.11252747802734374,-2.978386865234375,8.99501563720703,29.753529411764706
2025-10-20T16:30:03.067790,-16.96946564885496,0.8473282442748091,-2.7557251908396947,0.08858546142578125,-3.1507693847656246,8.892064965820312,29.706470588235295
2025-10-20T16:30:03.084685,-9.374045801526718,1.1145038167938932,-2.068702290076336,0.201112939453125,-3.7110125732421873,9.014169250488282,29.04764705882353
2025-10-20T16:30:03.106540,-5.374045801526718,1.6946564885496183,-1.5572519083969465,0.26336218261718747,-4.074931225585937,8.276755139160155,29.753529411764706
2025-10-20T16:30:03.129939,7.4961832061068705,0.4961832061068702,-0.9770992366412213,0.6392518432617187,-3.2513258544921873,9.076418493652342,29.800588235294118
2025-10-20T16:30:03.146836,17.053435114503817,2.1068702290076335,-0.2900763358778626,0.38307226562499996,-3.143586779785156,8.552088330078124,29.706470588235295
2025-10-20T16:30:03.167617,22.603053435114504,1.16793893129771,-0.0916030534351145,0.15322890625,-2.789244934082031,8.525752111816406,30.459411764705884
2025-10-20T16:30:03.190551,27.53435114503817,-1.633587786259542,1.8396946564885497,0.2154781494140625,-1.915361328125,8.947131604003905,29.800588235294118
2025-10-20T16:30:03.208314,30.450381679389313,-0.5801526717557252,0.3435114503816794,-0.076614453125,-1.5729904907226562,9.583989245605467,30.459411764705884
2025-10-20T16:30:03.228176,30.259541984732824,-0.6717557251908397,0.20610687022900764,-0.45489831542968745,-0.93852705078125,9.0788126953125,29.753529411764706
2025-10-20T16:30:03.250934,29.213740458015266,1.6870229007633588,0.10687022900763359,-0.8547299926757812,-0.6703764648437499,10.17056865234375,29.706470588235295
2025-10-20T16:30:03.269565,16.732824427480917,-1.6946564885496183,0.40458015267175573,0.6871358764648438,-0.28969840087890625,9.797073193359374,29.753529411764706
2025-10-20T16:30:03.288512,10.732824427480915,-0.1297709923664122,0.8625954198473282,0.5889736083984375,-0.3854664672851562,10.014945544433592,29.84764705882353
2025-10-20T16:30:03.311001,1.5572519083969465,-0.4580152671755725,0.3282442748091603,-0.11252747802734374,-0.39983167724609375,9.552864624023437,29.753529411764706
2025-10-20T16:30:03.330046,-9.458015267175572,1.1068702290076335,0.11450381679389313,0.12689268798828124,0.02154781494140625,9.79946739501953,29.706470588235295
2025-10-20T16:30:03.348506,-15.778625954198473,0.6183206106870229,-0.4732824427480916,0.086191259765625,-0.5578489868164063,9.710881933593749,29.84764705882353
2025-10-20T16:30:03.370688,-24.549618320610687,5.145038167938932,-0.7480916030534351,0.13407529296874998,-1.6711527587890624,10.165780249023436,29.753529411764706
2025-10-20T16:30:03.390624,-31.633587786259543,3.9770992366412212,-1.8244274809160306,-0.6296750366210937,-1.4245499877929686,9.406818322753905,29.753529411764706
2025-10-20T16:30:03.408215,-33.274809160305345,4.870229007633588,-2.946564885496183,-0.3591302490234375,-1.668758557128906,8.827421520996094,29.04764705882353
2025-10-20T16:30:03.430165,-35.900763358778626,5.213740458015267,-4.366412213740458,-0.6512228515624999,-1.4173673828125,8.659827404785156,29.800588235294118
2025-10-20T16:30:03.450903,-33.74045801526717,3.1603053435114505,-5.465648854961832,0.05746083984375,-1.599326708984375,8.84178673095703,29.800588235294118
2025-10-20T16:30:03.467751,-31.282442748091604,2.66412213740458,-6.557251908396947,-0.22026655273437498,-1.85790048828125,8.959102612304687,30.459411764705884
2025-10-20T16:30:03.489930,-30.541984732824428,1.7099236641221374,-7.9541984732824424,-0.2825157958984375,-2.166752502441406,8.882488159179687,29.800588235294118
2025-10-20T16:30:03.512016,-27.3206106870229,1.748091603053435,-8.740458015267176,-0.3112462158203125,-1.8938135131835936,8.346186987304687,29.753529411764706
2025-10-20T16:30:03.528874,-22.9618320610687,1.282442748091603,-9.633587786259541,-0.5674257934570313,-1.3718775512695311,8.832209924316405,29.706470588235295
2025-10-20T16:30:03.551105,-22.435114503816795,0.4961832061068702,-9.969465648854962,-0.4860229370117187,-1.4628572143554686,8.973467822265624,29.706470588235295
2025-10-20T16:30:03.574470,-22.740458015267176,0.6946564885496184,-10.16030534351145,-0.2825157958984375,-1.6639701538085936,8.755595471191405,30.459411764705884
2025-10-20T16:30:03.591336,-21.206106870229007,-0.0916030534351145,-9.908396946564885,-0.16280571289062498,-2.0159177978515626,8.992621435546875,29.753529411764706
2025-10-20T16:30:03.612733,-20.83969465648855,0.11450381679389313,-9.572519083969466,0.06703764648437499,-2.683900061035156,8.796296899414061,30.459411764705884
2025-10-20T16:30:03.635794,-18.53435114503817,0.3282442748091603,-8.86259541984733,-0.11013327636718749,-3.0047230834960934,8.810662109374999,30.459411764705884
2025-10-20T16:30:03.652691,-15.709923664122137,0.16793893129770993,-7.931297709923665,0.2705447875976562,-3.404554760742187,8.777143286132812,30.459411764705884
2025-10-20T16:30:03.673413,-13.412213740458014,1.8931297709923665,-6.67175572519084,0.5123591552734374,-3.6104561035156246,8.662221606445312,29.84764705882353
2025-10-20T16:30:03.696321,-10.221374045801527,1.083969465648855,-4.931297709923665,0.27293898925781246,-4.027047192382812,8.853757739257812,29.753529411764706
2025-10-20T16:30:03.714080,-4.412213740458015,0.6335877862595419,-3.1068702290076335,0.49320554199218747,-3.7110125732421873,8.932766394042968,29.84764705882353
2025-10-20T16:30:03.733937,-3.2442748091603053,3.8625954198473282,-1.4427480916030535,0.3184288208007812,-3.5218706420898434,9.2320416015625,29.04764705882353
2025-10-20T16:30:03.756895,-0.2366412213740458,2.5877862595419847,-0.04580152671755725,0.258573779296875,-3.4739866088867184,9.014169250488282,29.89470588235294
2025-10-20T16:30:03.775937,-1.8778625954198473,3.236641221374046,1.381679389312977,0.06703764648437499,-3.31357509765625,8.671798413085938,29.000588235294117
2025-10-20T16:30:03.794405,0.8091603053435115,2.404580152671756,3.8702290076335877,-0.06943184814453125,-3.1220389648437497,8.834604125976561,29.753529411764706
2025-10-20T16:30:03.816754,3.0839694656488548,2.8473282442748094,2.6793893129770994,-0.10295067138671875,-3.114856359863281,8.757989672851561,29.800588235294118
2025-10-20T16:30:03.836691,5.312977099236641,2.8091603053435112,3.282442748091603,-0.03591302490234375,-2.612074011230469,9.222464794921875,30.459411764705884
2025-10-20T16:30:03.854365,6.099236641221374,0.08396946564885496,3.564885496183206,-0.16998831787109375,-3.1794998046874996,8.8872765625,29.000588235294117
2025-10-20T16:30:03.876652,7.091603053435114,1.534351145038168,3.6412213740458017,-0.27293898925781246,-3.0502129150390624,8.832209924316405,29.04764705882353
2025-10-20T16:30:03.897448,9.893129770992367,1.2366412213740459,3.351145038167939,-0.24181436767578124,-3.526659045410156,8.276755139160155,29.000588235294117
2025-10-20T16:30:03.914413,15.938931297709924,0.04580152671755725,2.7709923664122136,-0.02154781494140625,-3.725377783203125,7.850587243652344,29.753529411764706
2025-10-20T16:30:03.936677,19.541984732824428,-1.6641221374045803,2.2290076335877864,0.086191259765625,-3.797203833007812,8.240842114257813,30.412352941176472
2025-10-20T16:30:03.958796,26.442748091603054,-1.0916030534351144,1.5725190839694656,-0.009576806640625,-2.9640216552734375,8.865728747558594,29.753529411764706
2025-10-20T16:30:03.975679,28.46564885496183,-1.381679389312977,0.9694656488549618,-0.0526724365234375,-2.710236279296875,7.8170684204101555,30.459411764705884
2025-10-20T16:30:03.997684,30.412213740458014,-3.099236641221374,0.46564885496183206,-0.6057330200195312,-2.360682836914062,8.233659509277343,29.706470588235295
2025-10-20T16:30:04.020686,31.16030534351145,-3.2442748091603053,0.1450381679389313,-0.4333505004882812,-1.1563994018554686,9.085995300292968,29.000588235294117
2025-10-20T16:30:04.037608,26.633587786259543,-2.519083969465649,-0.5267175572519084,-0.7613561279296874,-0.47644613037109373,9.047688073730468,29.706470588235295
2025-10-20T16:30:04.059451,19.129770992366414,-1.3358778625954197,-0.3053435114503817,-0.7158662963867187,0.7445967163085937,11.525686791992188,30.459411764705884
2025-10-20T16:30:04.082699,1.8931297709923665,0.648854961832061,1.786259541984733,-0.7062894897460937,-0.05027823486328125,9.524134204101562,29.800588235294118
2025-10-20T16:30:04.099994,-15.931297709923664,0.549618320610687,-0.7404580152671756,-0.38786066894531246,-0.35673604736328124,9.80665,29.753529411764706
2025-10-20T16:30:04.121154,-23.114503816793892,0.10687022900763359,-1.6717557251908397,-0.3184288208007812,-0.6751648681640625,10.108319409179687,29.800588235294118
2025-10-20T16:30:04.144617,-31.946564885496183,0.35877862595419846,-2.5114503816793894,-0.6655880615234374,-1.608903515625,9.993397729492187,29.706470588235295
2025-10-20T16:30:04.161940,-40.36641221374046,0.4961832061068702,-3.7480916030534353,-0.5913678100585937,-2.664746447753906,9.045293872070312,29.000588235294117
2025-10-20T16:30:04.182350,-41.50381679389313,0.8473282442748091,-4.770992366412214,-0.4525041137695312,-2.9041666137695312,9.119514123535156,29.000588235294117
2025-10-20T16:30:04.205185,-40.091603053435115,1.8702290076335877,-5.229007633587786,0.13407529296874998,-3.208230224609375,8.8872765625,29.706470588235295
2025-10-20T16:30:04.222936,-34.89312977099237,-0.33587786259541985,-5.99236641221374,-0.076614453125,-3.5290532470703124,8.674192614746094,29.800588235294118
2025-10-20T16:30:04.242726,-29.366412213740457,1.4809160305343512,-6.206106870229007,-0.15083470458984374,-3.2920272827148436,8.228871105957031,29.659411764705883
2025-10-20T16:30:04.265358,-22.519083969465647,3.7557251908396947,-5.717557251908397,-0.7110778930664062,-2.540247961425781,8.406042028808594,30.412352941176472
2025-10-20T16:30:04.283991,-19.206106870229007,5.244274809160306,-5.732824427480916,-1.2832920898437499,-1.9967641845703124,8.2743609375,30.459411764705884
2025-10-20T16:30:04.302982,-12.053435114503817,1.633587786259542,-4.282442748091603,0.36631285400390623,-2.1715409057617188,10.01733974609375,30.459411764705884
2025-10-20T16:30:04.325512,-11.65648854961832,1.099236641221374,-3.145038167938931,0.24660277099609373,-2.7269956909179687,8.853757739257812,29.84764705882353
2025-10-20T16:30:04.345439,-7.633587786259542,3.0076335877862594,-2.7557251908396947,-0.373495458984375,-2.877830395507812,8.657433203124999,29.000588235294117
2025-10-20T16:30:04.363223,-7.687022900763359,2.5801526717557253,-2.2061068702290076,-0.22266075439453123,-2.7724855224609373,9.354145886230468,29.753529411764706
2025-10-20T16:30:04.385506,-5.816793893129771,0.916030534351145,-1.8778625954198473,-0.02633621826171875,-3.0526071166992184,9.557653027343749,29.706470588235295
2025-10-20T16:30:04.406318,-6.534351145038168,0.6183206106870229,-1.4885496183206106,-0.35673604736328124,-3.3327287109375,9.198522778320312,29.753529411764706
2025-10-20T16:30:04.423224,-4.786259541984733,0.7480916030534351,-0.9694656488549618,-0.3902548706054687,-3.404554760742187,8.796296899414061,29.04764705882353
2025-10-20T16:30:04.445650,-5.732824427480916,0.20610687022900764,-0.37404580152671757,-0.24899697265624998,-3.361459130859375,8.939948999023438,29.04764705882353
2025-10-20T16:30:04.467683,-2.6412213740458017,-1.9465648854961832,-1.8854961832061068,-0.3232172241210937,-2.9640216552734375,9.117119921875,29.84764705882353
2025-10-20T16:30:04.484577,-4.458015267175573,1.381679389312977,0.6793893129770993,-0.16998831787109375,-2.6623522460937497,8.89924757080078,29.800588235294118
2025-10-20T16:30:04.506894,-3.236641221374046,2.5877862595419847,1.2900763358778626,0.2920926025390625,-3.009511486816406,9.121908325195312,29.753529411764706
2025-10-20T16:30:04.530225,-2.1908396946564888,2.2900763358778624,1.8244274809160306,-0.086191259765625,-2.7844565307617186,8.755595471191405,29.706470588235295
2025-10-20T16:30:04.547147,-3.381679389312977,4.877862595419847,1.8396946564885497,-0.05746083984375,-2.96881005859375,8.839392529296875,29.800588235294118
2025-10-20T16:30:04.568591,-3.5877862595419847,5.541984732824427,3.8702290076335877,-0.35673604736328124,-2.7533319091796873,8.726865051269531,29.04764705882353
2025-10-20T16:30:04.591630,-4.450381679389313,5.587786259541985,1.9312977099236641,-0.239420166015625,-2.7748797241210936,9.030928662109375,30.459411764705884
2025-10-20T16:30:04.608534,-4.290076335877862,4.458015267175573,1.7328244274809161,-0.3447650390625,-2.916137622070312,8.276755139160155,29.04764705882353
2025-10-20T16:30:04.629267,-1.984732824427481,3.4885496183206106,1.7557251908396947,-0.33039982910156246,-3.8091748413085935,8.051700183105469,29.706470588235295
2025-10-20T16:30:04.652273,3.3969465648854964,2.145038167938931,1.7328244274809161,-0.1771709228515625,-4.264073156738281,7.824251025390624,29.800588235294118
2025-10-20T16:30:04.670021,10.198473282442748,-0.3282442748091603,2.3740458015267176,-0.29927520751953124,-4.484339709472656,8.394071020507813,29.706470588235295
2025-10-20T16:30:04.689693,11.725190839694656,-1.7328244274809161,3.0916030534351147,-0.105344873046875,-3.854664672851562,8.585607153320312,29.800588235294118
2025-10-20T16:30:04.712042,15.778625954198473,-0.16793893129770993,3.4580152671755724,-0.18914193115234373,-3.342305517578125,8.449137658691406,29.800588235294118
2025-10-20T16:30:04.730636,18.259541984732824,-2.549618320610687,3.7022900763358777,0.08379705810546874,-2.6958710693359373,8.315062365722655,29.753529411764706
2025-10-20T16:30:04.749499,19.625954198473284,-3.480916030534351,3.7099236641221376,0.11013327636718749,-2.5641899780273434,8.559270935058594,29.706470588235295
2025-10-20T16:30:04.771898,24.229007633587788,-2.572519083969466,4.137404580152672,0.258573779296875,-2.109291662597656,8.916006982421875,29.753529411764706
2025-10-20T16:30:04.791770,21.061068702290076,-2.2213740458015265,4.549618320610687,-0.15322890625,-1.6519991455078125,9.076418493652342,29.753529411764706
2025-10-20T16:30:04.809311,12.908396946564885,-0.6641221374045801,5.183206106870229,-0.17956512451171874,-1.6136919189453125,9.765948571777344,29.000588235294117
2025-10-20T16:30:04.831197,6.305343511450381,-2.9770992366412212,5.137404580152672,-1.2785036865234374,-2.463633508300781,8.650250598144531,29.753529411764706
2025-10-20T16:30:04.851952,-3.2061068702290076,-1.282442748091603,4.259541984732825,-0.1292868896484375,-2.1930887207031247,8.695740429687499,29.753529411764706
2025-10-20T16:30:04.868828,-0.030534351145038167,-1.9541984732824427,4.213740458015267,0.24181436767578124,-1.3407529296874998,10.058041174316406,29.800588235294118
2025-10-20T16:30:04.890868,-4.99236641221374,-1.816793893129771,5.770992366412214,-0.16998831787109375,-3.380612744140625,9.282319836425781,29.753529411764706
2025-10-20T16:30:04.912868,-5.99236641221374,-1.2290076335877862,3.5419847328244276,-0.1388636962890625,-3.6942531616210936,8.372523205566406,29.04764705882353
2025-10-20T16:30:04.929738,-6.244274809160306,-1.8625954198473282,3.1526717557251906,0.033518823242187495,-3.6080619018554687,9.014169250488282,29.706470588235295
2025-10-20T16:30:04.951537,-3.1908396946564888,-2.618320610687023,2.435114503816794,-0.040701428222656245,-3.6176387084960937,8.88009395751953,29.753529411764706
2025-10-20T16:30:04.974420,4.885496183206107,-1.900763358778626,1.7633587786259541,-0.07900865478515624,-3.0023288818359375,8.001421948242188,29.000588235294117
2025-10-20T16:30:04.991299,14.885496183206106,-4.687022900763359,0.9847328244274809,-0.10295067138671875,-2.4349030883789062,8.398859423828124,29.800588235294118
2025-10-20T16:30:05.012931,16.442748091603054,-3.3206106870229006,0.6106870229007634,-0.24899697265624998,-1.2976572998046874,9.028534460449219,29.753529411764706
2025-10-20T16:30:05.035935,13.061068702290076,-1.3129770992366412,0.9541984732824428,-0.2346317626953125,0.062249243164062495,9.835380419921874,29.706470588235295
2025-10-20T16:30:05.052814,-0.6259541984732825,-0.9694656488549618,0.8473282442748091,-0.29927520751953124,-0.181959326171875,9.696516723632811,29.000588235294117
2025-10-20T16:30:05.073526,-7.290076335877862,-0.24427480916030533,0.1450381679389313,-0.8954314208984374,-0.814028564453125,9.581595043945311,29.659411764705883
2025-10-20T16:30:05.096776,-19.19083969465649,1.4809160305343512,-1.2442748091603053,-0.6057330200195312,-0.6009446166992187,9.375693701171874,29.04764705882353
2025-10-20T16:30:05.113692,-25.114503816793892,-0.007633587786259542,-3.015267175572519,-0.7422025146484375,-0.17956512451171874,11.137826123046874,29.800588235294118
2025-10-20T16:30:05.134553,-36.2442748091603,2.572519083969466,-4.480916030534351,-0.7134720947265625,-1.9584569580078124,9.639055883789062,30.459411764705884
2025-10-20T16:30:05.157625,-44.62595419847328,3.0610687022900764,-6.038167938931298,-0.6248866333007812,-2.0661960327148434,8.796296899414061,29.753529411764706
2025-10-20T16:30:05.175806,-49.18320610687023,1.6870229007633588,-8.122137404580153,-0.6105214233398437,-3.1747114013671873,8.82981572265625,29.800588235294118
2025-10-20T16:30:05.195211,-46.725190839694655,0.45038167938931295,-9.610687022900763,-0.277727392578125,-3.6152445068359373,8.619125976562499,29.706470588235295
2025-10-20T16:30:05.217713,-36.847328244274806,1.6946564885496183,-11.053435114503817,-0.4644751220703125,-3.816357446289062,8.190563879394531,29.000588235294117
2025-10-20T16:30:05.237183,-29.587786259541986,3.2748091603053435,-12.022900763358779,-0.46208092041015625,-3.411737365722656,7.922413293457031,29.000588235294117
2025-10-20T16:30:05.255260,-23.763358778625953,3.1755725190839694,-12.335877862595419,-0.19153613281249998,-3.1100679565429687,7.857769848632812,29.659411764705883
2025-10-20T16:30:05.277518,-16.82442748091603,2.3435114503816794,-11.977099236641221,0.02633621826171875,-2.6862942626953124,7.862558251953125,29.04764705882353
2025-10-20T16:30:05.298249,-10.206106870229007,3.0,-11.183206106870228,-0.41898529052734373,-2.7557261108398436,7.790732202148437,30.459411764705884
2025-10-20T16:30:05.315187,-3.618320610687023,2.145038167938931,-10.236641221374045,-0.2920926025390625,-2.9185318237304685,8.298302954101562,29.000588235294117
2025-10-20T16:30:05.337294,-1.3053435114503817,1.7557251908396947,-9.625954198473282,-0.4333505004882812,-2.93050283203125,8.939948999023438,29.753529411764706
2025-10-20T16:30:05.359328,-2.381679389312977,1.3435114503816794,-8.465648854961833,-0.39264907226562495,-3.507505432128906,8.987833032226561,29.659411764705883
2025-10-20T16:30:05.376327,-5.366412213740458,0.48854961832061067,-7.351145038167939,-0.023942016601562498,-3.555389465332031,8.659827404785156,29.753529411764706
2025-10-20T16:30:05.398587,-4.977099236641221,-0.7557251908396947,-6.236641221374046,-0.4261678955078125,-3.909731311035156,8.461108666992187,29.706470588235295
2025-10-20T16:30:05.421787,-4.083969465648855,-1.3511450381679388,-4.5038167938931295,-0.14125789794921875,-3.8666356811523435,9.265560424804686,30.459411764705884
2025-10-20T16:30:05.438746,-5.770992366412214,-1.3969465648854962,-3.0,-0.0143652099609375,-3.9336733276367184,8.59997236328125,29.706470588235295
2025-10-20T16:30:05.460452,-8.49618320610687,-0.8854961832061069,-1.786259541984733,-0.09337386474609374,-3.9600095458984375,8.86812294921875,29.04764705882353
2025-10-20T16:30:05.483489,-13.664122137404581,0.44274809160305345,-0.5954198473282443,0.30406361083984373,-4.046200805664062,8.990227233886719,29.04764705882353
2025-10-20T16:30:05.500431,-12.80916030534351,1.8244274809160306,0.007633587786259542,-0.06943184814453125,-4.321533996582031,8.032546569824218,30.459411764705884
2025-10-20T16:30:05.521022,-10.450381679389313,2.435114503816794,0.12213740458015267,0.09337386474609374,-4.556165759277343,7.692569934082031,29.659411764705883
2025-10-20T16:30:05.544974,-6.221374045801527,3.7480916030534353,1.9236641221374047,-0.22266075439453123,-4.431667272949219,8.535328918457031,29.000588235294117
2025-10-20T16:30:05.563172,-3.2290076335877864,3.572519083969466,-0.35877862595419846,-0.28969840087890625,-3.763685009765625,8.492233288574218,29.84764705882353
2025-10-20T16:30:05.582467,-2.7557251908396947,3.900763358778626,-0.4351145038167939,-0.5722141967773438,-3.4763808105468748,8.339004382324218,29.753529411764706
2025-10-20T16:30:05.605111,-2.8931297709923665,5.694656488549619,-0.5419847328244275,-0.8714894042968749,-3.1651345947265623,8.489839086914062,29.000588235294117
2025-10-20T16:30:05.624567,-3.1908396946564888,2.549618320610687,-0.9083969465648855,-0.8547299926757812,-3.1794998046874996,8.415618835449218,29.84764705882353
2025-10-20T16:30:05.642610,-3.2519083969465647,1.1755725190839694,-1.2900763358778626,-0.852335791015625,-2.8706477905273435,8.705317236328124,29.000588235294117
2025-10-20T16:30:05.664861,-4.519083969465649,0.9923664122137404,-1.6488549618320612,-0.5793968017578125,-2.7246014892578123,8.798691101074219,29.706470588235295
2025-10-20T16:30:05.685601,-7.129770992366412,0.0,-1.8854961832061068,-0.5051765502929687,-2.4779987182617185,8.825027319335938,30.459411764705884
2025-10-20T16:30:05.702596,-11.282442748091603,-0.6641221374045801,-3.8702290076335877,-0.1580173095703125,-3.143586779785156,8.968679418945312,29.04764705882353
2025-10-20T16:30:05.724757,-13.725190839694656,-1.3587786259541985,-3.9083969465648853,-0.24660277099609373,-3.2704794677734372,8.762778076171875,29.000588235294117
2025-10-20T16:30:05.746440,-15.603053435114504,-1.7328244274809161,-2.16793893129771,-0.10295067138671875,-3.9935283691406247,8.59278975830078,29.000588235294117
2025-10-20T16:30:05.763501,-15.351145038167939,-1.6030534351145038,-2.068702290076336,0.11731588134765625,-4.446032482910156,8.200140686035155,30.459411764705884
2025-10-20T16:30:05.785805,-14.458015267175572,-0.7709923664122137,-2.053435114503817,0.0526724365234375,-4.735730883789063,8.039729174804688,29.000588235294117
2025-10-20T16:30:05.808355,-10.50381679389313,-0.7251908396946565,-1.9312977099236641,0.05027823486328125,-4.69263525390625,8.037334973144532,30.459411764705884
2025-10-20T16:30:05.825240,-5.99236641221374,-0.5648854961832062,-1.6641221374045803,0.24899697265624998,-4.489128112792969,8.054094384765625,30.412352941176472
2025-10-20T16:30:05.847520,-2.6946564885496183,0.6870229007633588,-1.2290076335877862,0.15083470458984374,-4.498704919433593,7.999027746582031,29.84764705882353
2025-10-20T16:30:05.870964,0.2366412213740458,1.5190839694656488,-0.6564885496183206,-0.17956512451171874,-4.244919543457031,8.444349255371094,29.84764705882353
2025-10-20T16:30:05.887859,5.67175572519084,-0.5190839694656488,-1.9541984732824427,-0.3184288208007812,-3.816357446289062,8.264784130859374,29.800588235294118
2025-10-20T16:30:05.909752,7.244274809160306,0.4351145038167939,0.35877862595419846,-0.5219359619140624,-3.909731311035156,8.24802471923828,30.459411764705884
2025-10-20T16:30:05.933077,11.053435114503817,-0.9465648854961832,0.48854961832061067,-0.7302315063476562,-3.9695863525390624,8.214505895996094,29.753529411764706
2025-10-20T16:30:05.949964,15.908396946564885,-2.2061068702290076,0.7786259541984732,-0.699106884765625,-4.177881896972656,8.070853796386718,30.459411764705884
2025-10-20T16:30:05.971035,19.954198473282442,-3.5114503816793894,1.1526717557251909,-0.5434837768554687,-4.0988732421875,8.379705810546875,29.753529411764706
2025-10-20T16:30:05.993920,23.083969465648856,-4.33587786259542,1.6259541984732824,-0.4429273071289062,-3.3782185424804685,8.693346228027343,29.09470588235294
2025-10-20T16:30:06.010767,24.14503816793893,-4.190839694656488,2.1297709923664123,-0.22505495605468748,-3.3590649291992185,8.971073620605468,29.09470588235294
2025-10-20T16:30:06.031373,23.923664122137403,-4.236641221374046,2.6106870229007635,0.00239420166015625,-3.555389465332031,8.767566479492187,29.800588235294118
2025-10-20T16:30:06.054133,26.580152671755727,-4.931297709923665,3.16793893129771,0.009576806640625,-4.012681982421875,8.717288244628906,29.09470588235294
2025-10-20T16:30:06.071402,31.900763358778626,-4.221374045801527,3.7480916030534353,0.10295067138671875,-4.070142822265625,8.207323291015625,29.84764705882353
2025-10-20T16:30:06.093214,34.10687022900763,-2.0381679389312977,3.9618320610687023,-0.016759411621093748,-3.708618371582031,8.99501563720703,29.04764705882353
2025-10-20T16:30:06.117985,36.32824427480916,-5.251908396946565,4.083969465648855,-0.24899697265624998,-3.2225954345703123,8.772354882812499,29.753529411764706
2025-10-20T16:30:06.136174,35.81679389312977,-2.0610687022900764,4.106870229007634,-0.258573779296875,-3.047818713378906,8.999804040527343,29.800588235294118
2025-10-20T16:30:06.155750,38.267175572519086,-2.5114503816793894,4.038167938931298,-0.39264907226562495,-2.91134921875,8.772354882812499,29.753529411764706
2025-10-20T16:30:06.178434,42.12213740458015,-3.648854961832061,4.0458015267175576,-0.22744915771484372,-2.408566870117187,9.105148913574219,29.753529411764706
2025-10-20T16:30:06.197471,44.16030534351145,-4.557251908396947,3.763358778625954,0.0526724365234375,-1.659181750488281,8.84178673095703,29.000588235294117
2025-10-20T16:30:06.215945,43.229007633587784,-5.854961832061068,3.3969465648854964,-0.13646949462890623,-1.388636962890625,8.573636145019531,29.000588235294117
2025-10-20T16:30:06.238385,40.67175572519084,-0.06870229007633588,2.7938931297709924,-0.1771709228515625,-2.6695348510742187,9.016563452148437,29.659411764705883
2025-10-20T16:30:06.258719,32.86259541984733,-3.3587786259541983,2.7557251908396947,0.13646949462890623,-1.1923124267578125,8.650250598144531,29.800588235294118
2025-10-20T16:30:06.275880,35.18320610687023,-4.977099236641221,2.2442748091603053,-0.28012159423828126,-0.8714894042968749,10.026916552734374,29.659411764705883
2025-10-20T16:30:06.297947,32.06106870229008,-3.717557251908397,1.6870229007633588,-0.3902548706054687,-1.68551796875,8.578424548339843,30.459411764705884
2025-10-20T16:30:06.319610,30.27480916030534,-3.8396946564885495,1.7251908396946565,0.09576806640624999,-1.2306196533203124,8.99501563720703,30.459411764705884
2025-10-20T16:30:06.336489,29.35114503816794,-4.412213740458015,0.6946564885496184,0.12449848632812499,-1.3024457031249999,9.504980590820312,29.659411764705883
2025-10-20T16:30:06.358564,27.572519083969464,-5.854961832061068,0.5801526717557252,-0.28490999755859375,-1.7286135986328124,9.035717065429687,30.459411764705884
2025-10-20T16:30:06.381152,27.786259541984734,-5.8396946564885495,-0.16030534351145037,-0.1005564697265625,-1.2114660400390624,9.042899670410156,29.84764705882353
2025-10-20T16:30:06.398036,28.954198473282442,-3.2519083969465647,-0.8015267175572519,-0.4165910888671875,-0.8930372192382812,9.205705383300781,29.800588235294118
2025-10-20T16:30:06.420214,26.16793893129771,-3.3206106870229006,-0.9465648854961832,-0.584185205078125,-0.612915625,9.473855969238281,29.800588235294118
2025-10-20T16:30:06.443515,22.427480916030536,-2.8931297709923665,-0.9312977099236641,-0.201112939453125,-0.19632453613281248,9.485826977539062,29.753529411764706
2025-10-20T16:30:06.460393,16.6793893129771,-3.267175572519084,-0.9236641221374046,-0.3016694091796875,0.4285620971679687,9.449913952636718,29.800588235294118
2025-10-20T16:30:06.481539,12.50381679389313,-2.015267175572519,-0.9389312977099237,-0.39983167724609375,0.40222587890625,9.591171850585937,29.09470588235294
2025-10-20T16:30:06.504791,9.954198473282442,-2.015267175572519,-0.8625954198473282,-0.5961562133789062,0.0718260498046875,9.205705383300781,29.800588235294118
2025-10-20T16:30:06.522542,7.251908396946565,-2.5114503816793894,-0.9389312977099237,-0.47644613037109373,0.040701428222656245,9.409212524414063,29.800588235294118
2025-10-20T16:30:06.542381,4.412213740458015,-2.6564885496183206,-1.0076335877862594,-0.5003881469726562,-0.16519991455078123,9.713276135253906,29.84764705882353
2025-10-20T16:30:06.564949,1.6106870229007633,-1.633587786259542,-0.7786259541984732,-0.411802685546875,-0.04548983154296875,9.267954626464844,29.800588235294118
2025-10-20T16:30:06.583571,2.213740458015267,-2.2748091603053435,-0.816793893129771,-0.3016694091796875,-0.22266075439453123,9.200916979980468,29.09470588235294
2025-10-20T16:30:06.602476,2.4198473282442747,-0.9541984732824428,-0.5877862595419847,-0.3950432739257812,-1.0582371337890624,9.064447485351561,29.706470588235295
2025-10-20T16:30:06.625034,6.320610687022901,-1.8854961832061068,-0.8778625954198473,0.04548983154296875,-0.5027823486328125,9.179369165039063,29.753529411764706
2025-10-20T16:30:06.644961,10.114503816793894,-1.0763358778625953,-0.7862595419847328,0.023942016601562498,-1.3000515014648437,8.8872765625,29.753529411764706
2025-10-20T16:30:06.662631,13.061068702290076,-1.0687022900763359,-0.6106870229007634,0.105344873046875,-1.1947066284179686,9.392453112792968,30.459411764705884
2025-10-20T16:30:06.684846,13.34351145038168,-0.42748091603053434,-0.061068702290076333,0.5315127685546874,-1.5227122558593749,9.198522778320312,30.459411764705884
2025-10-20T16:30:06.705639,17.740458015267176,-0.9312977099236641,0.366412213740458,0.5051765502929687,-0.3495534423828125,9.641450085449218,29.800588235294118
2025-10-20T16:30:06.722581,18.358778625954198,0.35877862595419846,1.2748091603053435,-0.086191259765625,-0.8786720092773437,9.605537060546874,29.800588235294118
2025-10-20T16:30:06.744824,18.50381679389313,-0.5114503816793893,2.267175572519084,0.4572925170898437,-1.0199299072265624,8.834604125976561,29.800588235294118
2025-10-20T16:30:06.766936,21.671755725190838,-0.7175572519083969,2.687022900763359,0.7445967163085937,-0.4836287353515625,9.672574707031249,30.459411764705884
2025-10-20T16:30:06.783899,22.603053435114504,-2.4427480916030535,2.946564885496183,0.469263525390625,-0.8020575561523438,9.720458740234374,29.000588235294117
2025-10-20T16:30:06.806158,20.748091603053435,-1.099236641221374,3.8091603053435112,0.3399766357421875,-0.4644751220703125,9.567229833984374,29.04764705882353
2025-10-20T16:30:06.829177,18.076335877862597,-0.42748091603053434,4.015267175572519,0.22744915771484372,0.4955997436523437,9.356540087890625,30.459411764705884
2025-10-20T16:30:06.846091,15.541984732824428,0.26717557251908397,4.1679389312977095,0.2537853759765625,0.679953271484375,9.363722692871093,30.459411764705884
2025-10-20T16:30:06.867861,9.82442748091603,0.15267175572519084,3.854961832061069,0.41898529052734373,0.9792284790039062,9.931148486328125,29.800588235294118
2025-10-20T16:30:06.890994,5.854961832061068,2.3282442748091605,3.2442748091603053,0.0143652099609375,1.7836802368164062,9.976638317871092,29.800588235294118
2025-10-20T16:30:06.907901,-5.770992366412214,3.8244274809160306,2.595419847328244,-0.24899697265624998,1.668758557128906,9.974244116210937,30.459411764705884
2025-10-20T16:30:06.928660,-10.389312977099237,2.900763358778626,2.0763358778625953,0.11013327636718749,0.7302315063476562,9.457096557617186,29.753529411764706
2025-10-20T16:30:06.951509,-14.549618320610687,5.732824427480916,0.4122137404580153,0.2920926025390625,1.0438719238281249,9.313444458007812,29.800588235294118
2025-10-20T16:30:06.968836,-15.572519083969466,3.8931297709923665,-0.9312977099236641,-0.2609679809570312,0.5363011718749999,10.184933862304687,29.000588235294117
2025-10-20T16:30:06.989123,-16.732824427480917,2.381679389312977,-2.2519083969465647,-0.2561795776367187,-1.6998831787109374,7.3549875,29.09470588235294
2025-10-20T16:30:07.011809,-7.801526717557252,2.6412213740458017,-3.2519083969465647,-0.10773907470703124,-1.3335703247070312,8.391676818847655,30.412352941176472
2025-10-20T16:30:07.029995,2.801526717557252,-1.183206106870229,-4.267175572519084,-0.30406361083984373,-0.9074024291992187,8.556876733398436,29.753529411764706
2025-10-20T16:30:07.049544,6.923664122137405,-2.519083969465649,-4.526717557251908,0.1867477294921875,-0.8595183959960937,8.667010009765624,29.753529411764706
2025-10-20T16:30:07.072267,14.244274809160306,-2.5267175572519083,-5.427480916030534,0.7206546997070312,-0.842758984375,8.303091357421874,29.89470588235294
2025-10-20T16:30:07.091764,26.061068702290076,-5.862595419847328,-5.465648854961832,0.4644751220703125,-0.023942016601562498,9.153032946777342,29.04764705882353
2025-10-20T16:30:07.109844,27.541984732824428,-4.4961832061068705,-4.847328244274809,0.6775590698242188,-0.17956512451171874,8.635885388183594,29.800588235294118
2025-10-20T16:30:07.132021,32.74045801526717,-3.5572519083969465,-4.549618320610687,0.14604630126953125,0.19871873779296872,8.585607153320312,30.459411764705884
2025-10-20T16:30:07.153381,35.045801526717554,-4.519083969465649,-3.6106870229007635,0.5195417602539062,0.5506663818359374,8.913612780761719,29.800588235294118
2025-10-20T16:30:07.170670,33.87786259541985,-4.534351145038168,-2.3893129770992365,-0.7134720947265625,0.7972691528320313,9.299079248046874,29.706470588235295
2025-10-20T16:30:07.192737,33.13740458015267,-4.32824427480916,-3.8931297709923665,0.35673604736328124,1.3407529296874998,9.435548742675781,29.753529411764706
2025-10-20T16:30:07.214420,31.81679389312977,-5.99236641221374,-0.5954198473282443,0.02633621826171875,0.3399766357421875,9.521740002441407,29.09470588235294
2025-10-20T16:30:07.231540,24.641221374045802,-5.236641221374046,0.1297709923664122,-0.07900865478515624,1.5921441040039062,10.077194787597655,29.706470588235295
2025-10-20T16:30:07.253785,19.984732824427482,-3.0763358778625953,1.2366412213740459,-0.4213794921875,0.6177040283203125,8.9255837890625,29.04764705882353
2025-10-20T16:30:07.276796,13.885496183206106,-4.694656488549619,2.053435114503817,-0.1388636962890625,0.5051765502929687,9.198522778320312,29.800588235294118
2025-10-20T16:30:07.293955,11.946564885496183,-5.129770992366412,2.6717557251908395,0.23702596435546874,0.3711012573242187,9.516951599121093,29.04764705882353
2025-10-20T16:30:07.315750,10.900763358778626,-4.740458015267175,2.900763358778626,0.30406361083984373,0.6057330200195312,9.586383447265625,29.89470588235294
2025-10-20T16:30:07.339077,9.900763358778626,-5.694656488549619,3.404580152671756,0.3280056274414062,0.565031591796875,9.277531433105468,29.753529411764706
2025-10-20T16:30:07.355958,8.977099236641221,-4.1679389312977095,3.564885496183206,0.277727392578125,0.7757213378906249,9.026140258789061,29.800588235294118
2025-10-20T16:30:07.376585,8.305343511450381,-2.9389312977099236,3.5877862595419847,0.842758984375,0.8307879760742187,9.227253198242186,29.706470588235295
2025-10-20T16:30:07.399660,8.83969465648855,-3.2977099236641223,3.5877862595419847,0.5027823486328125,1.3718775512695311,9.303867651367186,29.753529411764706
2025-10-20T16:30:07.417393,10.885496183206106,-2.5267175572519083,3.2595419847328246,0.4908113403320312,1.3024457031249999,9.30147344970703,29.000588235294117
2025-10-20T16:30:07.437192,10.0,-3.8702290076335877,3.3282442748091605,0.0909796630859375,1.5227122558593749,8.798691101074219,30.412352941176472
2025-10-20T16:30:07.459594,13.717557251908397,-1.2900763358778626,3.068702290076336,0.0047884033203125,1.1013327636718748,8.896853369140624,29.84764705882353
2025-10-20T16:30:07.478230,17.50381679389313,-1.5954198473282444,2.946564885496183,0.00718260498046875,1.5466542724609373,9.169792358398437,29.800588235294118
2025-10-20T16:30:07.497317,17.49618320610687,-1.5190839694656488,2.2977099236641223,-0.13168109130859373,1.6160861206054686,9.334992272949219,29.000588235294117
2025-10-20T16:30:07.519679,17.908396946564885,-2.2595419847328246,3.854961832061069,0.3711012573242187,1.8698714965820311,9.325415466308593,29.04764705882353
2025-10-20T16:30:07.539563,17.671755725190838,-2.4122137404580153,1.4732824427480915,0.19871873779296872,1.8938135131835936,9.246406811523437,29.84764705882353
2025-10-20T16:30:07.557162,19.748091603053435,-2.595419847328244,0.732824427480916,0.29927520751953124,1.905784521484375,8.935160595703124,29.800588235294118
2025-10-20T16:30:07.579281,21.35114503816794,-2.0381679389312977,0.007633587786259542,0.016759411621093748,1.9991583862304687,9.107543115234375,29.84764705882353
2025-10-20T16:30:07.599599,17.66412213740458,-1.5877862595419847,-0.4122137404580153,0.15562310791015624,2.042254016113281,9.306261853027344,30.459411764705884
2025-10-20T16:30:07.617077,14.099236641221374,-0.9083969465648855,-0.732824427480916,0.1197100830078125,2.4971523315429685,9.277531433105468,29.800588235294118
2025-10-20T16:30:07.639211,8.511450381679388,-0.1450381679389313,-1.1068702290076335,0.41898529052734373,3.0837317382812497,9.303867651367186,29.753529411764706
2025-10-20T16:30:07.660380,0.366412213740458,2.0,-1.015267175572519,0.3280056274414062,3.488351818847656,9.495403784179686,29.000588235294117
2025-10-20T16:30:07.677449,-7.282442748091603,2.9083969465648853,-1.450381679389313,0.6703764648437499,3.0238766967773434,9.390058911132812,29.04764705882353
2025-10-20T16:30:07.699496,-11.83969465648855,4.404580152671755,-1.2442748091603053,0.23702596435546874,2.9640216552734375,9.423577734375,29.753529411764706
2025-10-20T16:30:07.721937,-22.282442748091604,5.526717557251908,-1.4198473282442747,0.5985504150390625,3.1579519897460937,9.342174877929686,29.753529411764706
2025-10-20T16:30:07.739402,-29.763358778625953,4.656488549618321,-1.450381679389313,0.23702596435546874,2.5617957763671875,9.610325463867188,29.04764705882353
2025-10-20T16:30:07.760874,-33.89312977099237,5.732824427480916,-1.5725190839694656,0.023942016601562498,1.9823989746093749,8.616731774902343,29.000588235294117
2025-10-20T16:30:07.783856,-34.32824427480916,5.625954198473282,-2.122137404580153,0.21787235107421873,1.3934253662109375,9.160215551757812,29.000588235294117
2025-10-20T16:30:07.801405,-29.51145038167939,2.564885496183206,-2.6793893129770994,0.10773907470703124,0.3950432739257812,8.585607153320312,30.459411764705884
2025-10-20T16:30:07.821506,-22.49618320610687,1.9770992366412214,-3.3206106870229006,0.21068974609375,1.0558429321289062,9.478644372558593,29.753529411764706
2025-10-20T16:30:07.844369,-9.473282442748092,0.4961832061068702,-4.251908396946565,0.258573779296875,0.7541735229492187,8.061276989746093,29.706470588235295
2025-10-20T16:30:07.863020,0.2748091603053435,1.6488549618320612,-4.908396946564886,0.1292868896484375,-0.36391865234375,7.999027746582031,29.753529411764706
2025-10-20T16:30:07.881985,16.458015267175572,-4.564885496183206,-4.6106870229007635,1.1468225952148436,0.22266075439453123,9.191340173339842,29.753529411764706
2025-10-20T16:30:07.904463,25.572519083969464,-4.450381679389313,-5.3816793893129775,1.139639990234375,0.15322890625,8.834604125976561,30.459411764705884
2025-10-20T16:30:07.923101,39.52671755725191,-3.1603053435114505,-5.198473282442748,0.316034619140625,0.6392518432617187,8.228871105957031,29.753529411764706
2025-10-20T16:30:07.942069,44.80152671755725,-4.068702290076335,-5.0,0.7422025146484375,1.5897499023437498,8.781931689453124,29.000588235294117
2025-10-20T16:30:07.964548,50.47328244274809,-1.9618320610687023,-4.770992366412214,0.8068459594726562,2.1021090576171875,8.757989672851561,29.753529411764706
2025-10-20T16:30:07.984002,51.51908396946565,-5.435114503816794,-4.221374045801527,0.45489831542968745,2.166752502441406,8.949525805664061,29.753529411764706
2025-10-20T16:30:08.002188,49.68702290076336,-4.549618320610687,-3.8702290076335877,0.6344634399414062,3.019088293457031,8.786720092773438,30.459411764705884
2025-10-20T16:30:08.024171,46.74809160305343,-3.564885496183206,-3.183206106870229,0.0383072265625,3.1028853515624997,9.10993731689453,29.753529411764706
2025-10-20T16:30:08.044055,39.6412213740458,-5.656488549618321,-3.549618320610687,0.25139117431640623,3.6583401367187496,9.830592016601562,29.04764705882353
2025-10-20T16:30:08.061614,24.6793893129771,-3.7709923664122136,-2.3053435114503817,0.076614453125,3.366247534179687,8.580818749999999,30.459411764705884
2025-10-20T16:30:08.083626,16.977099236641223,-4.145038167938932,-1.900763358778626,0.12689268798828124,3.0789433349609374,9.236830004882812,29.800588235294118
2025-10-20T16:30:08.104803,8.885496183206106,-2.9389312977099236,-1.3358778625954197,0.612915625,2.959233251953125,9.425971936035156,29.000588235294117
2025-10-20T16:30:08.121736,0.8625954198473282,-2.435114503816794,-0.7709923664122137,0.5243301635742187,2.4947581298828125,9.009380847167968,29.706470588235295
2025-10-20T16:30:08.143624,-5.396946564885496,-0.6183206106870229,-0.5190839694656488,0.6703764648437499,2.042254016113281,8.82981572265625,29.000588235294117
2025-10-20T16:30:08.167051,-8.801526717557252,1.4427480916030535,-0.22900763358778625,0.5267243652343749,2.0781670410156248,8.978256225585938,29.753529411764706
2025-10-20T16:30:08.183974,-11.366412213740459,0.06870229007633588,-0.16030534351145037,0.7517793212890624,2.061407629394531,9.07163009033203,29.84764705882353
2025-10-20T16:30:08.206160,-14.557251908396946,1.984732824427481,-0.12213740458015267,0.35194764404296874,2.2481553588867187,9.014169250488282,29.04764705882353
2025-10-20T16:30:08.229034,-14.595419847328245,2.801526717557252,-0.5954198473282443,0.9648632690429687,2.0470424194335934,9.296685046386719,29.800588235294118
2025-10-20T16:30:08.245916,-17.33587786259542,2.648854961832061,-0.9007633587786259,0.19632453613281248,2.4947581298828125,9.085995300292968,29.753529411764706
2025-10-20T16:30:08.267439,-17.35114503816794,0.7404580152671756,-1.2671755725190839,0.9241618408203125,3.294421484375,9.605537060546874,29.84764705882353
2025-10-20T16:30:08.290731,-18.778625954198475,3.2213740458015265,-1.4122137404580153,0.01915361328125,3.6343981201171873,9.382876306152344,29.04764705882353
2025-10-20T16:30:08.308201,-20.396946564885496,3.717557251908397,-1.8702290076335877,0.1388636962890625,3.801992236328125,9.04050546875,29.706470588235295
2025-10-20T16:30:08.328422,-19.297709923664122,1.0687022900763359,-2.404580152671756,-0.10295067138671875,3.5482068603515624,9.562441430664062,29.04764705882353
2025-10-20T16:30:08.351185,-16.603053435114504,1.2442748091603053,-2.9770992366412212,0.04548983154296875,3.162740393066406,9.114725720214842,30.412352941176472
2025-10-20T16:30:08.369797,-14.969465648854962,0.31297709923664124,-3.282442748091603,-0.1867477294921875,2.8227637573242186,9.394847314453125,29.800588235294118
2025-10-20T16:30:08.388628,-12.465648854961833,-0.8015267175572519,-3.83206106870229,0.055066638183593745,2.7533319091796873,9.191340173339842,29.800588235294118
2025-10-20T16:30:08.411008,-10.061068702290076,-1.1068702290076335,-5.816793893129771,0.13407529296874998,2.3678654418945313,9.33978067626953,29.04764705882353
2025-10-20T16:30:08.430908,-7.694656488549619,-1.7251908396946565,-3.9389312977099236,0.229843359375,2.327164013671875,9.14824454345703,29.753529411764706
2025-10-20T16:30:08.448437,-4.893129770992366,-1.900763358778626,-4.0534351145038165,0.5602431884765625,2.499546533203125,9.157821350097656,29.753529411764706
2025-10-20T16:30:08.470403,-3.5114503816793894,-1.3206106870229009,-4.526717557251908,0.93852705078125,2.6144682128906247,8.79150849609375,29.84764705882353
2025-10-20T16:30:08.491568,-2.1526717557251906,-1.1145038167938932,-4.748091603053435,0.9337386474609375,2.6479870361328124,8.935160595703124,30.412352941176472
2025-10-20T16:30:08.508478,-2.49618320610687,-1.5114503816793894,-4.809160305343512,0.86191259765625,2.43250888671875,8.963891015625,30.459411764705884
2025-10-20T16:30:08.530395,-3.267175572519084,-0.022900763358778626,-4.916030534351145,0.5674257934570313,2.1787235107421874,9.334992272949219,29.800588235294118
2025-10-20T16:30:08.552404,-5.259541984732825,-0.04580152671755725,-4.770992366412214,0.1771709228515625,2.6408044311523438,8.75320126953125,29.800588235294118
2025-10-20T16:30:08.569303,-8.053435114503817,-1.9465648854961832,-4.7251908396946565,-0.062249243164062495,2.4851813232421875,9.694122521972655,29.000588235294117
2025-10-20T16:30:08.591297,-9.778625954198473,-0.6641221374045801,-3.8244274809160306,-0.047884033203124995,2.5617957763671875,9.394847314453125,29.800588235294118
2025-10-20T16:30:08.614494,-12.541984732824428,-0.8244274809160306,-3.5877862595419847,-0.239420166015625,2.3367408203125,9.234435803222656,29.04764705882353
2025-10-20T16:30:08.631412,-14.854961832061068,-1.6717557251908397,-3.267175572519084,0.04548983154296875,1.85790048828125,9.05965908203125,29.659411764705883
2025-10-20T16:30:08.652515,-17.12213740458015,-0.11450381679389313,-2.4732824427480917,0.07900865478515624,1.879448303222656,8.815450512695312,29.800588235294118
2025-10-20T16:30:08.675605,-19.328244274809162,-0.7022900763358778,-2.0839694656488548,0.201112939453125,1.8818425048828125,9.334992272949219,29.800588235294118
2025-10-20T16:30:08.693332,-20.076335877862597,-0.2900763358778626,-1.4274809160305344,0.11252747802734374,1.924938134765625,9.006986645507812,29.753529411764706
2025-10-20T16:30:08.712992,-20.52671755725191,0.8931297709923665,-1.3053435114503817,0.4525041137695312,1.6735469604492186,8.805873706054687,30.459411764705884
2025-10-20T16:30:08.735659,-16.64885496183206,0.7862595419847328,-1.7709923664122138,0.21787235107421873,1.656787548828125,9.272743029785156,29.800588235294118
2025-10-20T16:30:08.754667,-15.763358778625955,1.6793893129770991,-1.549618320610687,0.16041151123046873,1.5131354492187499,9.306261853027344,29.753529411764706
2025-10-20T16:30:08.773031,-15.122137404580153,1.6030534351145038,-1.0229007633587786,-0.239420166015625,1.3527239379882812,7.826645227050781,29.800588235294118
2025-10-20T16:30:08.795301,-8.801526717557252,0.061068702290076333,-2.4580152671755724,0.47884033203125,1.3239935180664062,10.534487304687499,30.459411764705884
2025-10-20T16:30:08.815632,-5.076335877862595,0.37404580152671757,-3.1068702290076335,0.36152445068359373,1.465251416015625,8.889670764160156,29.753529411764706
2025-10-20T16:30:08.833037,-2.7786259541984735,1.9083969465648856,-3.4885496183206106,0.047884033203124995,1.1180921752929687,9.253589416503905,30.459411764705884
2025-10-20T16:30:08.855034,-1.0610687022900764,-1.0229007633587786,-4.442748091603053,0.7733271362304687,1.4915876342773438,9.119514123535156,29.800588235294118
2025-10-20T16:30:08.876266,4.122137404580153,-0.3816793893129771,-4.778625954198473,0.1580173095703125,1.637633935546875,9.392453112792968,29.753529411764706
2025-10-20T16:30:08.893192,2.2748091603053435,1.0229007633587786,-5.129770992366412,0.033518823242187495,1.5370774658203123,9.428366137695312,29.04764705882353
2025-10-20T16:30:08.915075,2.8396946564885495,2.519083969465649,-6.0534351145038165,-0.00239420166015625,2.118868469238281,9.871293444824218,29.800588235294118
2025-10-20T16:30:08.937525,1.4580152671755726,2.9770992366412212,-6.458015267175573,0.0526724365234375,1.8076222534179687,9.184157568359375,29.04764705882353
2025-10-20T16:30:08.954429,1.1526717557251909,0.8625954198473282,-7.297709923664122,0.46686932373046874,1.68551796875,9.342174877929686,29.753529411764706
2025-10-20T16:30:08.980803,-1.4122137404580153,3.7404580152671754,-7.67175572519084,0.33758243408203126,1.7286135986328124,9.318232861328125,29.753529411764706
2025-10-20T16:30:09.004104,-2.6564885496183206,3.267175572519084,-8.526717557251908,0.6272808349609375,1.9488801513671874,9.753977563476562,30.459411764705884
2025-10-20T16:30:09.021008,-8.969465648854962,4.412213740458015,-7.938931297709924,0.86191259765625,1.9201497314453124,9.485826977539062,29.753529411764706
2025-10-20T16:30:09.042336,-10.122137404580153,4.67175572519084,-7.755725190839694,0.8547299926757812,1.9991583862304687,9.610325463867188,29.800588235294118
2025-10-20T16:30:09.065742,-15.938931297709924,5.221374045801527,-7.267175572519084,0.43574470214843747,2.070984436035156,9.459490759277344,29.84764705882353
2025-10-20T16:30:09.084460,-19.46564885496183,6.244274809160306,-6.641221374045801,0.612915625,2.085349645996094,9.64623848876953,29.000588235294117
2025-10-20T16:30:09.105556,-23.236641221374047,7.351145038167939,-5.99236641221374,0.4213794921875,2.032677209472656,9.464279162597656,29.000588235294117
2025-10-20T16:30:09.128572,-25.68702290076336,5.99236641221374,-4.984732824427481,0.44053310546874996,1.9321207397460936,9.471461767578125,29.84764705882353
2025-10-20T16:30:09.146305,-28.984732824427482,6.687022900763359,-4.236641221374046,0.17238251953125,1.5825672973632812,9.435548742675781,29.753529411764706
2025-10-20T16:30:09.166353,-29.412213740458014,8.01526717557252,-3.3587786259541983,-0.009576806640625,1.3910311645507811,9.464279162597656,29.753529411764706
2025-10-20T16:30:09.189051,-29.458015267175572,6.694656488549619,-3.16793893129771,-0.011971008300781249,1.350329736328125,9.718064538574218,29.000588235294117
2025-10-20T16:30:09.207207,-26.0,5.343511450381679,-2.50381679389313,0.5339069702148437,0.5985504150390625,9.267954626464844,29.800588235294118
2025-10-20T16:30:09.227587,-22.18320610687023,4.580152671755725,-2.5419847328244276,0.39264907226562495,0.6703764648437499,9.428366137695312,29.800588235294118
2025-10-20T16:30:09.250141,-18.30534351145038,1.9618320610687023,-2.885496183206107,0.7517793212890624,0.5961562133789062,9.138667736816405,29.753529411764706
2025-10-20T16:30:09.269148,-13.801526717557252,1.9541984732824427,-2.763358778625954,0.13407529296874998,0.4908113403320312,8.913612780761719,29.753529411764706
2025-10-20T16:30:09.287752,-8.229007633587786,2.145038167938931,-3.145038167938931,0.20350714111328125,-0.04548983154296875,8.858546142578124,30.459411764705884
2025-10-20T16:30:09.309945,-0.48091603053435117,-1.8396946564885497,-3.3282442748091605,0.7709329345703124,0.023942016601562498,9.433154541015625,30.459411764705884
2025-10-20T16:30:09.329931,6.770992366412214,-1.1603053435114503,-3.7022900763358777,0.8499415893554687,0.5746083984375,9.07163009033203,30.459411764705884
2025-10-20T16:30:09.347542,10.282442748091603,-0.45038167938931295,-3.8931297709923665,0.2825157958984375,0.8930372192382812,9.016563452148437,30.459411764705884
2025-10-20T16:30:09.369616,10.435114503816793,-0.5877862595419847,-1.9923664122137406,0.3591302490234375,0.6655880615234374,8.219294299316406,29.753529411764706
2025-10-20T16:30:09.390405,15.01526717557252,-0.4580152671755725,-4.351145038167939,0.3280056274414062,1.2378022583007813,9.131485131835937,29.706470588235295
2025-10-20T16:30:09.407353,15.320610687022901,-3.816793893129771,-4.419847328244275,0.6775590698242188,0.7661445312499999,8.700528833007812,29.000588235294117
2025-10-20T16:30:09.429441,13.625954198473282,-2.6793893129770994,-4.442748091603053,0.6177040283203125,1.3575123413085937,8.86094034423828,29.753529411764706
2025-10-20T16:30:09.451677,8.84732824427481,-0.32061068702290074,-4.885496183206107,-0.1388636962890625,2.3511060302734372,10.656591589355468,29.000588235294117
2025-10-20T16:30:09.468642,4.229007633587786,-0.061068702290076333,-4.404580152671755,-0.16759411621093748,1.9680337646484374,9.368511096191405,29.800588235294118
2025-10-20T16:30:09.490759,1.213740458015267,-2.83206106870229,-4.473282442748092,-0.30885201416015623,1.5035586425781249,9.282319836425781,29.800588235294118
2025-10-20T16:30:09.513824,0.5267175572519084,-3.786259541984733,-4.809160305343512,-0.08140285644531249,1.0175357055664063,9.351751684570312,29.753529411764706
2025-10-20T16:30:09.530741,0.4961832061068702,-4.061068702290076,-4.66412213740458,-0.16998831787109375,0.699106884765625,9.052476477050782,30.459411764705884
2025-10-20T16:30:09.552643,1.0229007633587786,-5.320610687022901,-4.526717557251908,-0.0526724365234375,0.5458779785156249,8.992621435546875,29.800588235294118
2025-10-20T16:30:09.576214,4.648854961832061,-4.351145038167939,-4.229007633587786,-0.06943184814453125,0.062249243164062495,9.188945971679686,30.459411764705884
2025-10-20T16:30:09.593120,10.603053435114504,-5.076335877862595,-3.8091603053435112,0.00239420166015625,0.02633621826171875,9.018957653808593,30.459411764705884
2025-10-20T16:30:09.613901,15.13740458015267,-4.511450381679389,-3.312977099236641,-0.1197100830078125,0.2753331909179687,9.205705383300781,29.09470588235294
2025-10-20T16:30:09.636755,20.328244274809162,-4.5038167938931295,-2.6106870229007635,0.00718260498046875,0.5458779785156249,9.133879333496093,29.800588235294118
2025-10-20T16:30:09.654071,24.580152671755727,-5.190839694656488,-1.9923664122137406,0.17238251953125,0.29448680419921874,8.853757739257812,29.706470588235295
2025-10-20T16:30:09.674379,28.17557251908397,-4.9465648854961835,-1.4045801526717556,0.354341845703125,0.622492431640625,9.112331518554686,29.753529411764706
2025-10-20T16:30:09.697034,29.587786259541986,-4.763358778625954,-0.8625954198473282,0.26815058593749996,1.2425906616210938,9.349357482910156,29.84764705882353
2025-10-20T16:30:09.715225,33.778625954198475,-5.0534351145038165,-0.31297709923664124,0.10295067138671875,1.66636435546875,9.33978067626953,29.800588235294118
2025-10-20T16:30:09.734652,31.610687022900763,-4.305343511450381,0.16030534351145037,0.13407529296874998,1.8507178833007811,9.382876306152344,29.800588235294118
2025-10-20T16:30:09.757404,27.396946564885496,-3.7251908396946565,0.5267175572519084,0.06703764648437499,2.5378537597656248,9.636661682128906,29.753529411764706
2025-10-20T16:30:09.776481,21.770992366412212,-3.4580152671755724,0.7786259541984732,-0.13168109130859373,2.887407202148437,9.619902270507811,29.800588235294118
2025-10-20T16:30:09.795004,13.740458015267176,-2.427480916030534,0.6641221374045801,0.2609679809570312,2.9448680419921875,9.579200842285156,30.459411764705884
2025-10-20T16:30:09.817483,8.01526717557252,-1.4885496183206106,0.6030534351145038,0.12689268798828124,3.189076611328125,9.957484704589843,29.800588235294118
2025-10-20T16:30:09.837504,-2.66412213740458,0.0,0.4198473282442748,0.603338818359375,3.744531396484375,9.706093530273437,29.753529411764706
2025-10-20T16:30:09.855172,-12.916030534351146,1.3587786259541985,0.007633587786259542,0.229843359375,3.687070556640625,9.732429748535155,30.459411764705884
2025-10-20T16:30:09.877449,-20.16793893129771,3.0610687022900764,-0.3435114503816794,0.24181436767578124,3.2321722412109373,9.253589416503905,29.753529411764706
2025-10-20T16:30:09.898896,-26.099236641221374,4.152671755725191,-1.0687022900763359,0.19871873779296872,2.906560815429687,9.114725720214842,29.000588235294117
2025-10-20T16:30:09.915881,-30.114503816793892,4.67175572519084,-1.916030534351145,0.00718260498046875,2.5546131713867184,9.229647399902344,29.753529411764706
2025-10-20T16:30:09.938106,-32.00763358778626,5.6183206106870225,-2.4732824427480917,0.26815058593749996,2.3151930053710936,8.980650427246093,29.753529411764706
2025-10-20T16:30:09.960238,-32.786259541984734,6.137404580152672,-2.3282442748091605,0.05985504150390625,1.9943699829101562,8.980650427246093,29.753529411764706
2025-10-20T16:30:09.977152,-31.236641221374047,5.656488549618321,-2.618320610687023,-0.009576806640625,1.659181750488281,8.695740429687499,29.800588235294118
2025-10-20T16:30:09.999088,-21.96946564885496,5.595419847328245,-3.183206106870229,-0.07422025146484375,0.7876923461914062,8.487444885253906,29.141764705882352
2025-10-20T16:30:10.021667,-11.396946564885496,4.748091603053435,-3.3740458015267176,-0.0430956298828125,0.0718260498046875,8.834604125976561,29.09470588235294
2025-10-20T16:30:10.038569,2.9770992366412212,0.26717557251908397,-5.748091603053435,0.3184288208007812,0.6200982299804687,9.291896643066405,29.800588235294118
2025-10-20T16:30:10.060795,9.267175572519085,1.8015267175572518,-3.786259541984733,0.12210428466796874,0.55545478515625,8.355763793945313,29.000588235294117
2025-10-20T16:30:10.083837,19.053435114503817,1.1908396946564885,-3.595419847328244,0.2346317626953125,0.6679822631835937,8.470685473632813,29.000588235294117
2025-10-20T16:30:10.101007,29.53435114503817,-3.8702290076335877,-2.9160305343511452,0.5985504150390625,0.9193734375,8.640673791503906,29.84764705882353
2025-10-20T16:30:10.122871,35.87786259541985,-0.11450381679389313,-2.50381679389313,0.6105214233398437,1.6519991455078125,9.497797985839844,29.89470588235294
2025-10-20T16:30:10.145925,38.969465648854964,-2.1297709923664123,-1.6030534351145038,0.565031591796875,2.0638018310546875,8.801085302734375,30.412352941176472
2025-10-20T16:30:10.162807,38.458015267175576,-2.7251908396946565,-0.0916030534351145,0.3495534423828125,2.375048046875,9.636661682128906,29.800588235294118
2025-10-20T16:30:10.183768,33.69465648854962,-0.1450381679389313,1.0610687022900764,0.33758243408203126,2.6431986328124997,9.414000927734374,30.459411764705884
2025-10-20T16:30:10.206874,28.984732824427482,1.6793893129770991,2.2595419847328246,0.28012159423828126,2.9281086303710935,8.851363537597656,29.04764705882353
2025-10-20T16:30:10.224612,22.770992366412212,-0.5877862595419847,2.954198473282443,0.5003881469726562,2.6982652709960937,9.014169250488282,29.800588235294118
2025-10-20T16:30:10.244405,19.015267175572518,-3.7022900763358777,3.687022900763359,1.0175357055664063,2.8371289672851563,10.098742602539062,30.459411764705884
2025-10-20T16:30:10.267068,13.458015267175572,-0.5877862595419847,4.068702290076335,0.7661445312499999,2.770091320800781,9.387664709472656,30.459411764705884
2025-10-20T16:30:10.286103,5.809160305343512,-0.48854961832061067,4.282442748091603,0.4525041137695312,2.839523168945312,8.935160595703124,29.706470588235295
2025-10-20T16:30:10.304624,-2.099236641221374,-0.3435114503816794,4.419847328244275,0.6584054565429687,2.291250988769531,9.2320416015625,29.84764705882353
2025-10-20T16:30:10.327018,-2.0763358778625953,-0.1450381679389313,4.5038167938931295,0.5770026000976562,2.5450363647460934,9.504980590820312,29.04764705882353
2025-10-20T16:30:10.347334,-6.221374045801527,-0.7709923664122137,5.793893129770993,0.51714755859375,2.1811177124023438,9.586383447265625,29.753529411764706
2025-10-20T16:30:10.364937,-5.877862595419847,-0.33587786259541985,3.549618320610687,0.3902548706054687,2.2864625854492187,9.220070593261719,30.459411764705884
2025-10-20T16:30:10.386955,-7.32824427480916,0.5572519083969466,2.8091603053435112,0.4285620971679687,2.039859814453125,8.990227233886719,29.753529411764706
2025-10-20T16:30:10.408125,-6.557251908396947,-1.916030534351145,1.8015267175572518,0.3136404174804687,2.4205378784179685,9.105148913574219,29.753529411764706
2025-10-20T16:30:10.425081,-2.9618320610687023,-0.3511450381679389,0.8396946564885496,0.689530078125,1.5945383056640625,9.287108239746093,29.800588235294118
2025-10-20T16:30:10.447129,-1.6870229007633588,0.7633587786259542,0.0916030534351145,0.469263525390625,2.2768857788085937,8.66940421142578,29.84764705882353
2025-10-20T16:30:10.469574,0.8625954198473282,-0.030534351145038167,-1.6488549618320612,0.4333505004882812,2.0446482177734375,8.674192614746094,29.000588235294117
2025-10-20T16:30:10.486499,-1.1755725190839694,-0.6793893129770993,-2.114503816793893,0.8906430175781249,3.0597897216796874,8.815450512695312,29.800588235294118
2025-10-20T16:30:10.508758,0.7404580152671756,0.022900763358778626,-2.9083969465648853,0.34715924072265625,3.1699229980468746,9.13627353515625,29.84764705882353
2025-10-20T16:30:10.532222,-0.2366412213740458,-0.3053435114503817,-3.801526717557252,0.2825157958984375,2.6575638427734374,8.947131604003905,29.753529411764706
2025-10-20T16:30:10.549160,-1.1297709923664123,-1.3511450381679388,-4.480916030534351,-0.00239420166015625,3.0071172851562498,9.576806640625,29.84764705882353
2025-10-20T16:30:10.569922,-3.49618320610687,-1.816793893129771,-4.870229007633588,0.28490999755859375,3.181894006347656,9.507374792480467,29.800588235294118
2025-10-20T16:30:10.592873,-4.908396946564886,-2.404580152671756,-5.4961832061068705,0.09816226806640624,2.9735984619140625,9.277531433105468,29.000588235294117
2025-10-20T16:30:10.611132,-7.748091603053435,-2.618320610687023,-5.8396946564885495,0.2609679809570312,3.268085266113281,9.414000927734374,29.000588235294117
2025-10-20T16:30:10.630718,-7.465648854961832,-2.2213740458015265,-5.709923664122138,0.15322890625,3.1579519897460937,9.277531433105468,29.706470588235295
2025-10-20T16:30:10.653343,-8.251908396946565,-2.0610687022900764,-5.900763358778626,0.4165910888671875,2.703053674316406,9.6151138671875,29.800588235294118
2025-10-20T16:30:10.672846,-9.641221374045802,-0.6412213740458015,-5.961832061068702,0.4070142822265625,2.360682836914062,9.490615380859374,29.800588235294118
2025-10-20T16:30:10.690947,-10.84732824427481,0.22900763358778625,-3.9236641221374047,0.6679822631835937,2.3367408203125,9.3086560546875,29.753529411764706
2025-10-20T16:30:10.713077,-10.580152671755725,0.2824427480916031,-5.687022900763359,0.5003881469726562,1.8411410766601561,9.294290844726563,30.459411764705884
2025-10-20T16:30:10.734033,-9.221374045801527,0.8549618320610687,-5.312977099236641,0.6105214233398437,1.9800047729492187,9.411606726074218,29.800588235294118
2025-10-20T16:30:10.750959,-7.587786259541985,0.9312977099236641,-4.9465648854961835,0.6751648681640625,2.1883003173828124,9.220070593261719,29.800588235294118
2025-10-20T16:30:10.773111,-8.488549618320612,0.732824427480916,-4.229007633587786,0.7110778930664062,2.379836450195312,9.3852705078125,29.753529411764706
2025-10-20T16:30:10.795190,-10.13740458015267,0.8931297709923665,-3.6564885496183206,0.5051765502929687,2.703053674316406,9.516951599121093,29.141764705882352
2025-10-20T16:30:10.812106,-13.625954198473282,1.3282442748091603,-2.572519083969466,0.44053310546874996,2.9927520751953125,9.610325463867188,29.706470588235295
2025-10-20T16:30:10.834361,-14.740458015267176,-0.3893129770992366,-2.2213740458015265,0.3016694091796875,2.887407202148437,9.6151138671875,29.800588235294118
2025-10-20T16:30:10.857760,-15.885496183206106,-1.6564885496183206,-1.717557251908397,0.086191259765625,2.612074011230469,8.726865051269531,29.89470588235294
2025-10-20T16:30:10.874613,-18.740458015267176,1.015267175572519,-1.4198473282442747,-0.06943184814453125,2.5713725830078125,9.469067565917967,29.84764705882353
2025-10-20T16:30:10.896026,-19.6793893129771,-0.2366412213740458,-1.0763358778625953,-0.0047884033203125,2.3487118286132813,9.533711010742186,30.412352941176472
2025-10-20T16:30:10.919129,-22.396946564885496,1.0076335877862594,-0.732824427480916,-0.17956512451171874,2.3535002319335936,8.580818749999999,29.706470588235295
2025-10-20T16:30:10.936002,-22.923664122137403,0.8702290076335878,-0.9236641221374046,-0.13407529296874998,1.7549498168945312,9.397241516113281,29.000588235294117
2025-10-20T16:30:10.956793,-20.52671755725191,0.916030534351145,-0.42748091603053434,-0.32082302246093747,1.2521674682617188,9.016563452148437,30.459411764705884
2025-10-20T16:30:10.979951,-18.72519083969466,0.732824427480916,-0.6335877862595419,-0.699106884765625,1.93451494140625,9.452308154296874,29.04764705882353
2025-10-20T16:30:10.998159,-15.351145038167939,0.5343511450381679,-0.916030534351145,-0.5099649536132812,1.0749965454101562,8.355763793945313,29.800588235294118
2025-10-20T16:30:11.017548,-12.412213740458014,0.9618320610687023,-1.5648854961832062,-0.00239420166015625,1.3000515014648437,9.595960253906249,29.84764705882353
2025-10-20T16:30:11.039992,-13.427480916030534,1.0229007633587786,-1.099236641221374,-0.7422025146484375,1.0031704956054688,8.777143286132812,29.84764705882353
2025-10-20T16:30:11.059063,-8.419847328244275,1.4961832061068703,-3.900763358778626,-0.6057330200195312,1.637633935546875,8.863334545898438,30.459411764705884
2025-10-20T16:30:11.077590,-6.076335877862595,1.7404580152671756,-2.183206106870229,-0.34237083740234375,1.659181750488281,9.150638745117186,29.800588235294118
2025-10-20T16:30:11.100289,-5.427480916030534,0.31297709923664124,-2.0916030534351147,-0.5626373901367188,1.7238251953125,9.540893615722656,29.800588235294118
2025-10-20T16:30:11.120439,-7.488549618320611,0.183206106870229,-2.2442748091603053,-0.354341845703125,1.6711527587890624,8.90643017578125,30.459411764705884
2025-10-20T16:30:11.138538,-5.923664122137405,-1.213740458015267,-2.3053435114503817,0.00718260498046875,1.7501614135742187,9.433154541015625,29.84764705882353
2025-10-20T16:30:11.160931,-9.603053435114504,-0.6946564885496184,-2.801526717557252,-0.07900865478515624,1.8243816650390623,9.205705383300781,30.459411764705884
2025-10-20T16:30:11.181331,-11.702290076335878,-1.0229007633587786,-3.351145038167939,0.055066638183593745,2.288856787109375,9.627084875488281,29.800588235294118
2025-10-20T16:30:11.198773,-12.13740458015267,0.06870229007633588,-3.549618320610687,-0.009576806640625,1.6615759521484375,9.124302526855468,29.04764705882353
2025-10-20T16:30:11.220974,-12.82442748091603,-1.0916030534351144,-4.229007633587786,0.34715924072265625,1.7214309936523438,9.732429748535155,29.04764705882353
2025-10-20T16:30:11.242612,-16.114503816793892,1.3206106870229009,-4.603053435114504,0.4333505004882812,1.5801730957031248,9.306261853027344,29.753529411764706
2025-10-20T16:30:11.259593,-16.51145038167939,2.2290076335877864,-5.572519083969466,0.5099649536132812,1.6735469604492186,9.090783703613281,29.753529411764706
2025-10-20T16:30:11.281696,-16.80916030534351,2.9236641221374047,-6.519083969465649,0.2537853759765625,1.5107412475585937,9.069235888671875,29.753529411764706
2025-10-20T16:30:11.303408,-14.870229007633588,3.564885496183206,-7.320610687022901,1.0390835205078124,0.9576806640625,9.07163009033203,30.412352941176472
2025-10-20T16:30:11.320326,-15.541984732824428,4.450381679389313,-8.206106870229007,0.55545478515625,0.8667010009765624,9.236830004882812,30.459411764705884
2025-10-20T16:30:11.342788,-13.900763358778626,2.3282442748091605,-8.954198473282442,0.4165910888671875,0.7805097412109374,9.662997900390625,29.800588235294118
2025-10-20T16:30:11.364944,-12.122137404580153,4.923664122137405,-9.366412213740459,0.7541735229492187,0.4644751220703125,9.387664709472656,30.459411764705884
2025-10-20T16:30:11.381921,-12.106870229007633,7.793893129770993,-9.442748091603054,0.63206923828125,0.9864110839843749,9.200916979980468,29.706470588235295
2025-10-20T16:30:11.403825,-8.221374045801527,4.786259541984733,-9.404580152671755,0.7805097412109374,1.1755530151367186,9.296685046386719,29.753529411764706
2025-10-20T16:30:11.426757,-9.282442748091603,5.076335877862595,-9.603053435114504,1.13006318359375,0.9504980590820312,8.93755479736328,29.000588235294117
2025-10-20T16:30:11.443800,-11.572519083969466,4.526717557251908,-9.183206106870228,0.5027823486328125,1.5107412475585937,9.05965908203125,29.706470588235295
2025-10-20T16:30:11.465204,-11.877862595419847,4.923664122137405,-8.633587786259541,0.8044517578125,1.85790048828125,9.5384994140625,29.753529411764706
2025-10-20T16:30:11.488425,-16.198473282442748,4.305343511450381,-8.19083969465649,0.43574470214843747,2.4516625,9.639055883789062,29.04764705882353
2025-10-20T16:30:11.505306,-21.14503816793893,4.358778625954199,-7.3816793893129775,0.8451531860351562,1.7094599853515624,9.311050256347656,29.89470588235294
2025-10-20T16:30:11.526007,-24.114503816793892,4.870229007633588,-6.633587786259542,0.5410895751953124,1.1109095703125,9.639055883789062,29.800588235294118
2025-10-20T16:30:11.548719,-25.770992366412212,4.809160305343512,-5.580152671755725,0.2154781494140625,0.8451531860351562,9.124302526855468,29.000588235294117
2025-10-20T16:30:11.566458,-27.358778625954198,1.9618320610687023,-4.969465648854962,0.1292868896484375,0.6368576416015624,9.047688073730468,29.800588235294118
2025-10-20T16:30:11.586277,-29.17557251908397,4.854961832061068,-4.091603053435114,-0.201112939453125,0.488417138671875,9.91438907470703,29.753529411764706
2025-10-20T16:30:11.609003,-26.603053435114504,2.2290076335877864,-3.6717557251908395,-0.469263525390625,0.5530605834960938,9.373299499511718,29.84764705882353
2025-10-20T16:30:11.628035,-23.923664122137403,1.2290076335877862,-3.4198473282442747,-0.28012159423828126,-0.0383072265625,8.942343200683593,30.459411764705884
2025-10-20T16:30:11.646566,-20.610687022900763,1.5572519083969465,-3.6717557251908395,-0.1580173095703125,0.2346317626953125,8.89924757080078,30.459411764705884
2025-10-20T16:30:11.668926,-16.015267175572518,0.5572519083969466,-4.083969465648855,0.05746083984375,-0.11013327636718749,9.088389501953124,29.84764705882353
2025-10-20T16:30:11.689249,-10.465648854961833,-0.9007633587786259,-4.229007633587786,0.16759411621093748,-0.20350714111328125,9.325415466308593,29.800588235294118
2025-10-20T16:30:11.706677,-6.061068702290076,-0.5267175572519084,-4.450381679389313,0.2442085693359375,-0.22744915771484372,8.8872765625,29.000588235294117
2025-10-20T16:30:11.728830,-2.4656488549618323,-1.0,-4.854961832061068,0.076614453125,0.14125789794921875,8.611943371582031,29.753529411764706
2025-10-20T16:30:11.749987,0.7557251908396947,-1.7251908396946565,-5.137404580152672,-0.1197100830078125,-0.12449848632812499,8.98304462890625,29.753529411764706
2025-10-20T16:30:11.766848,2.7022900763358777,-1.5725190839694656,-5.145038167938932,-0.13168109130859373,0.26815058593749996,9.112331518554686,29.706470588235295
2025-10-20T16:30:11.788925,5.419847328244275,-2.519083969465649,-5.267175572519084,-0.086191259765625,0.29448680419921874,9.172186560058593,29.800588235294118
2025-10-20T16:30:11.810924,6.801526717557252,-3.3053435114503817,-5.145038167938932,-0.45010991210937495,-0.19871873779296872,9.318232861328125,29.09470588235294
2025-10-20T16:30:11.827815,6.343511450381679,-2.2213740458015265,-4.717557251908397,-0.11731588134765625,0.17477672119140625,9.859322436523437,29.89470588235294
2025-10-20T16:30:11.849807,2.282442748091603,-2.3740458015267176,-4.244274809160306,0.49320554199218747,0.24181436767578124,9.91438907470703,29.800588235294118
2025-10-20T16:30:11.872330,3.648854961832061,-2.2213740458015265,-3.4656488549618323,-0.14125789794921875,0.24899697265624998,9.943119494628906,29.753529411764706
2025-10-20T16:30:11.889270,0.7557251908396947,-4.106870229007634,-3.3587786259541983,0.34237083740234375,-0.38786066894531246,8.743624462890624,30.459411764705884
2025-10-20T16:30:11.911422,1.0610687022900764,-3.633587786259542,-3.0229007633587788,0.2442085693359375,-0.16280571289062498,9.2320416015625,29.706470588235295
2025-10-20T16:30:11.934544,-1.1374045801526718,-2.480916030534351,-2.5572519083969465,0.28490999755859375,-0.277727392578125,9.402029919433593,29.753529411764706
2025-10-20T16:30:11.951498,-3.0381679389312977,-2.2213740458015265,-2.1068702290076335,0.42377369384765623,-0.062249243164062495,9.564835632324218,29.84764705882353
2025-10-20T16:30:11.972926,-5.0534351145038165,-1.7099236641221374,-1.8549618320610688,0.5770026000976562,0.06464344482421874,9.421183532714844,29.800588235294118
2025-10-20T16:30:11.996192,-6.984732824427481,-0.35877862595419846,-1.816793893129771,0.3758896606445312,0.15562310791015624,9.706093530273437,29.753529411764706
2025-10-20T16:30:12.013582,-8.908396946564885,0.22137404580152673,-2.015267175572519,0.45010991210937495,0.4070142822265625,9.627084875488281,29.04764705882353
2025-10-20T16:30:12.033855,-12.122137404580153,2.3053435114503817,-1.8396946564885497,0.12449848632812499,0.679953271484375,9.624690673828125,29.753529411764706
2025-10-20T16:30:12.056738,-16.549618320610687,2.717557251908397,-1.8625954198473282,0.06464344482421874,0.6823474731445313,9.356540087890625,29.04764705882353
2025-10-20T16:30:12.076082,-20.916030534351144,3.7099236641221376,-1.9923664122137406,-0.105344873046875,0.7015010864257812,9.485826977539062,29.753529411764706
2025-10-20T16:30:12.094619,-24.557251908396946,3.9923664122137406,-2.1603053435114505,-0.17956512451171874,0.5339069702148437,9.442731347656249,29.09470588235294
2025-10-20T16:30:12.117955,-26.236641221374047,4.259541984732825,-2.5877862595419847,-0.28969840087890625,0.42377369384765623,9.636661682128906,29.84764705882353
2025-10-20T16:30:12.138513,-29.18320610687023,4.3893129770992365,-2.969465648854962,-0.6105214233398437,0.16280571289062498,9.91438907470703,29.84764705882353
2025-10-20T16:30:12.156020,-33.091603053435115,4.305343511450381,-2.8396946564885495,-0.5865794067382812,0.1292868896484375,9.464279162597656,29.000588235294117
2025-10-20T16:30:12.178217,-36.29770992366412,4.3816793893129775,-3.2977099236641223,-0.5889736083984375,0.05746083984375,9.49300958251953,29.753529411764706
2025-10-20T16:30:12.199544,-38.274809160305345,4.083969465648855,-3.0229007633587788,-0.36631285400390623,-0.277727392578125,9.548076220703125,30.459411764705884
2025-10-20T16:30:12.216440,-39.80152671755725,4.374045801526718,-3.267175572519084,-0.4429273071289062,-0.5267243652343749,9.53131680908203,29.753529411764706
2025-10-20T16:30:12.238467,-40.51145038167939,4.748091603053435,-3.4122137404580153,-0.13646949462890623,-0.49320554199218747,9.220070593261719,29.800588235294118
2025-10-20T16:30:12.260200,-41.70229007633588,3.572519083969466,-3.2595419847328246,0.2609679809570312,-0.2920926025390625,9.409212524414063,29.800588235294118
2025-10-20T16:30:12.277100,-42.51145038167939,5.106870229007634,-3.1068702290076335,0.1771709228515625,-0.8810662109374999,9.210493786621093,29.753529411764706
2025-10-20T16:30:12.299136,-39.12977099236641,6.396946564885496,-2.717557251908397,0.20829554443359374,-1.3144167114257812,8.980650427246093,29.800588235294118
2025-10-20T16:30:12.322184,-39.70229007633588,4.129770992366412,-2.480916030534351,0.5291185668945312,-1.1731588134765625,9.306261853027344,29.84764705882353
2025-10-20T16:30:12.339102,-39.969465648854964,5.312977099236641,-2.0,0.39264907226562495,-0.9864110839843749,9.205705383300781,30.459411764705884
2025-10-20T16:30:12.361018,-39.48854961832061,4.129770992366412,-1.8854961832061068,0.6105214233398437,-1.0845733520507812,9.150638745117186,29.800588235294118
2025-10-20T16:30:12.384158,-39.83206106870229,3.6106870229007635,-1.7251908396946565,0.30406361083984373,-1.2952630981445312,8.884882360839843,29.800588235294118
2025-10-20T16:30:12.401090,-38.76335877862596,2.015267175572519,-1.465648854961832,0.033518823242187495,-1.8004396484374998,8.884882360839843,29.84764705882353
2025-10-20T16:30:12.423115,-36.267175572519086,2.6793893129770994,-1.5801526717557253,-0.01915361328125,-1.927332336425781,8.84178673095703,30.459411764705884
2025-10-20T16:30:12.446491,-32.10687022900763,0.07633587786259542,-1.4045801526717556,-0.19153613281249998,-2.2290017456054687,8.8872765625,29.753529411764706
2025-10-20T16:30:12.463716,-27.984732824427482,1.8702290076335877,-1.3053435114503817,-0.4285620971679687,-2.77727392578125,8.504204296874999,29.000588235294117
2025-10-20T16:30:12.485032,-22.290076335877863,0.7709923664122137,-1.8091603053435115,0.13646949462890623,-3.071760729980469,8.130708837890625,30.459411764705884
2025-10-20T16:30:12.508185,-14.755725190839694,1.9236641221374047,-2.045801526717557,0.1005564697265625,-3.248931652832031,8.12113203125,29.800588235294118
2025-10-20T16:30:12.525097,-4.977099236641221,-1.8778625954198473,-2.404580152671756,0.38786066894531246,-3.699041564941406,8.52335791015625,29.84764705882353
2025-10-20T16:30:12.546071,-1.6641221374045803,-0.5190839694656488,-2.8473282442748094,0.4429273071289062,-2.863465185546875,8.992621435546875,29.000588235294117
2025-10-20T16:30:12.569253,0.007633587786259542,1.9083969465648856,-3.122137404580153,0.17238251953125,-1.3742717529296875,9.332598071289063,29.753529411764706
2025-10-20T16:30:12.587016,-2.7022900763358777,1.4351145038167938,-3.198473282442748,0.0,-1.5394716674804687,9.047688073730468,29.000588235294117
2025-10-20T16:30:12.606813,-8.17557251908397,1.381679389312977,-2.0076335877862594,0.1197100830078125,-0.24181436767578124,9.323021264648437,30.459411764705884
2025-10-20T16:30:12.629647,-12.045801526717558,2.33587786259542,-4.00763358778626,-0.009576806640625,-0.41898529052734373,9.658209497070311,29.753529411764706
2025-10-20T16:30:12.648695,-18.755725190839694,2.900763358778626,-4.137404580152672,-0.19871873779296872,-1.218648645019531,9.382876306152344,29.09470588235294
2025-10-20T16:30:12.667155,-20.427480916030536,2.0763358778625953,-4.351145038167939,-0.16041151123046873,-1.898601916503906,8.904035974121093,29.753529411764706
2025-10-20T16:30:12.689685,-22.419847328244273,1.4122137404580153,-5.687022900763359,-0.5410895751953124,-2.300827795410156,9.167398156738281,29.800588235294118
2025-10-20T16:30:12.709574,-21.18320610687023,0.366412213740458,-6.786259541984733,-0.6392518432617187,-3.227383837890625,8.865728747558594,29.753529411764706
2025-10-20T16:30:12.727106,-17.46564885496183,-1.0229007633587786,-7.312977099236641,-0.5458779785156249,-3.6080619018554687,8.386888415527343,29.84764705882353
2025-10-20T16:30:12.749108,-13.122137404580153,-2.564885496183206,-8.068702290076336,-0.47884033203125,-3.854664672851562,8.166621862792969,29.800588235294118
2025-10-20T16:30:12.770238,-5.755725190839694,-2.7251908396946565,-8.465648854961833,-0.023942016601562498,-4.661510632324219,8.058882788085937,29.84764705882353
2025-10-20T16:30:12.787116,5.404580152671755,-3.2061068702290076,-8.053435114503817,-0.3280056274414062,-4.3239281982421875,8.396465222167969,30.459411764705884
2025-10-20T16:30:12.809204,8.80916030534351,-2.381679389312977,-7.709923664122138,-0.18435352783203124,-3.4428619873046875,8.748412866210938,29.84764705882353
2025-10-20T16:30:12.831616,9.923664122137405,-1.4045801526717556,-6.740458015267175,-0.4381389038085937,-2.0254946044921875,9.198522778320312,30.459411764705884
2025-10-20T16:30:12.848499,6.2748091603053435,-0.12213740458015267,-6.015267175572519,-0.12689268798828124,-1.5897499023437498,9.287108239746093,29.706470588235295
2025-10-20T16:30:12.870351,2.122137404580153,0.8091603053435115,-5.312977099236641,-0.4285620971679687,-1.0678139404296874,9.33978067626953,29.753529411764706
