timestamp,gyro_x,gyro_y,gyro_z,acc_x,acc_y,acc_z,temp,angle_deg,angular_velocity,angular_acceleration,pid_output,motor_pulse
2025-11-30T16:11:34.899984,250.12977099236642,-209.12977099236642,42.725190839694655,-4.632780212402343,10.079588989257813,-15.37316885986328,22.553529411764707,-33.251297601860365,250.12977099236642,95374572.63566968,102394.14256621638,2000
2025-11-30T16:11:34.918730,250.12977099236642,-250.13740458015266,89.32824427480917,-9.057264880371093,19.61270144958496,-4.254496350097656,22.412352941176472,-77.76070942145232,250.12977099236642,0.0,2267.71832415237,2000
2025-11-30T16:11:34.938752,250.12977099236642,-250.13740458015266,-199.0229007633588,-8.482656481933594,14.43464180908203,2.2098481323242187,22.459411764705884,81.29597590706938,250.12977099236642,0.0,-2421.0909613159747,1000
2025-11-30T16:11:34.959230,250.12977099236642,-175.38931297709922,-250.13740458015266,-5.65031591796875,5.324704492187499,1.1348515869140625,22.459411764705884,77.96859593060088,250.12977099236642,0.0,-2259.6605672079286,1000
2025-11-30T16:11:34.985525,250.12977099236642,-151.16030534351145,-250.13740458015266,-6.325480786132812,3.3327287109375,-1.3431471313476562,22.60058823529412,-68.04971540081046,250.12977099236642,0.0,2018.0054966651119,2000
2025-11-30T16:11:35.004778,250.12977099236642,-126.51908396946565,-199.9083969465649,-7.783549597167968,1.9967641845703124,-2.8898014038085935,22.459411764705884,-34.64328427912904,250.12977099236642,0.0,991.5845014154299,2000
2025-11-30T16:11:35.023981,250.12977099236642,-72.06870229007633,-213.67175572519085,-9.41639512939453,1.8171990600585937,-6.794744311523437,22.506470588235295,-14.97287576678692,250.12977099236642,0.0,426.3198196339743,1926
2025-11-30T16:11:35.042786,250.12977099236642,-45.06870229007634,-192.8320610687023,-8.022969763183593,-0.33518823242187495,-1.908178723144531,22.459411764705884,9.96286179411278,250.12977099236642,0.0,-306.8837009683836,1193
2025-11-30T16:11:35.063936,243.45801526717557,-57.48091603053435,-174.5267175572519,-6.387730029296875,-0.08858546142578125,-2.1739351074218747,22.506470588235295,2.3334489426790053,243.4580152671756,-314.4976480162601,-1249.2620748094516,1000
2025-11-30T16:11:35.082603,217.35114503816794,-49.221374045801525,-162.3053435114504,-6.490680700683593,-1.1468225952148436,-0.7398083129882812,22.412352941176472,57.17418281648466,217.35114503816794,-1415.1145689270688,-1678.5238983887305,1000
2025-11-30T16:11:35.105631,191.75572519083968,-34.93893129770992,-121.78625954198473,-4.177881896972656,-1.6831237670898436,2.6575638427734374,22.506470588235295,-32.34744349944203,191.75572519083968,-1312.375881363882,974.796813572364,2000
2025-11-30T16:11:35.130560,118.91603053435115,-12.282442748091603,-86.77862595419847,-8.312668164062499,-5.410895751953125,0.8762778076171874,22.506470588235295,-80.80099131151987,118.91603053435117,-2668.5518111951546,2357.429884201111,2000
2025-11-30T16:11:35.157495,74.21374045801527,-2.717557251908397,-64.69465648854961,-6.687005236816406,-5.054159704589844,1.7477672119140624,22.553529411764707,-70.92422180737798,74.21374045801527,-1599.1589826206093,2053.9758166598513,2000
2025-11-30T16:11:35.179566,32.778625954198475,-7.450381679389313,-32.961832061068705,-6.691793640136718,-5.049371301269531,1.0103531005859374,22.553529411764707,-78.68484314562468,32.778625954198475,-1866.658072283565,2284.657388389179,2000
2025-11-30T16:11:35.214834,14.458015267175572,10.786259541984732,-14.793893129770993,-7.4962453979492185,-5.616797094726562,1.4173673828125,22.459411764705884,-75.83740277246257,14.458015267175574,-685.8401003831,2198.4319189625185,2000
2025-11-30T16:11:35.234294,-49.50381679389313,40.091603053435115,-1.8702290076335877,-6.698976245117187,-4.936843823242187,1.1923124267578125,22.506470588235295,-76.42232261133586,-49.50381679389314,-2258.47631927221,2216.412582716423,2000
2025-11-30T16:11:35.253007,-95.33587786259542,48.25954198473283,15.183206106870228,-6.5026517089843745,-4.493916516113281,2.310404602050781,22.553529411764707,-62.79147591721199,-95.33587786259542,-2448.835631448437,1815.1263644207986,2000
2025-11-30T16:11:35.271549,-146.82442748091603,43.17557251908397,17.137404580152673,-7.7763669921875,-3.806780639648437,0.51714755859375,22.553529411764707,-82.26378098795975,-146.82442748091603,-2773.5006693420733,2394.0408659677228,2000
2025-11-30T16:11:35.292267,-221.42748091603053,67.65648854961832,42.61832061068702,-6.600813977050781,-3.469198205566406,1.2042834350585936,22.459411764705884,-70.85627356670989,-221.42748091603053,-3730.912320823124,2050.2680012062806,2000
2025-11-30T16:11:35.315767,-250.13740458015266,67.2824427480916,25.129770992366414,-9.821015209960937,-4.290409374999999,-0.296881005859375,22.459411764705884,86.04164636361502,-250.13740458015263,-1433.3957988325296,-2557.8750847731862,1000
2025-11-30T16:11:35.337504,-250.13740458015266,83.55725190839695,-3.7022900763358777,-8.271966735839843,-2.310404602050781,-1.8938135131835936,22.553529411764707,50.65889965472824,-250.13740458015263,0.0,-1458.152080496817,1000
2025-11-30T16:11:35.359993,-250.13740458015266,62.80152671755725,-3.2595419847328246,-5.968744738769531,-2.1978771240234374,1.1156979736328125,22.459411764705884,-63.08649920350804,-250.13740458015263,0.0,1877.6852743986606,2000
2025-11-30T16:11:35.382816,-250.13740458015266,-184.44274809160305,-88.89312977099236,-7.702146740722656,0.9959878906249999,1.7836802368164062,22.64764705882353,29.178521926439128,-250.13740458015263,0.0,-874.1530661910832,1000
2025-11-30T16:11:35.404471,-250.13740458015266,-129.21374045801528,-26.259541984732824,-8.14028564453125,0.37828386230468747,-13.915100048828124,22.553529411764707,-1.557209921946324,-250.13740458015263,0.0,1283.5158419030747,2000
2025-11-30T16:11:35.424076,-215.5801526717557,-25.603053435114504,6.145038167938932,-8.09479581298828,0.2609679809570312,-5.7077767578125,22.553529411764707,-2.6178245061741148,-215.5801526717557,1784.5584258799681,1106.1991498602665,2000
2025-11-30T16:11:35.445757,-165.3969465648855,-13.992366412213741,9.01526717557252,-7.419630944824219,-1.0103531005859374,-3.191470812988281,22.459411764705884,17.566701055922533,-165.3969465648855,2332.9264390107865,-505.1158303081313,1000
2025-11-30T16:11:35.478947,-235.74809160305344,-86.72519083969466,163.00763358778627,-3.7229835815429686,0.5195417602539062,-1.6352397338867186,22.459411764705884,-17.62588303330815,-235.7480916030534,-2901.131541030065,522.7607462977264,2000
2025-11-30T16:11:35.506807,-188.34351145038167,-0.9465648854961832,118.1145038167939,-10.455478649902343,1.6424223388671875,-7.237671618652343,22.506470588235295,-12.785423081969277,-188.34351145038167,1328.3264754594463,369.6921909165794,1869
2025-11-30T16:11:35.530248,-181.99236641221373,9.381679389312977,85.89312977099236,-10.347739575195313,1.8555062866210936,-5.992686755371094,22.553529411764707,-17.20401212372754,-181.99236641221373,255.94874073452544,500.3408913134741,2000
2025-11-30T16:11:35.554599,-156.4885496183206,28.885496183206108,133.31297709923663,-8.243236315917969,4.177881896972656,-4.007893579101562,22.553529411764707,-46.1896506978429,-156.4885496183206,1075.461326033208,1349.2781504215463,2000
2025-11-30T16:11:35.573110,-168.25954198473283,72.36641221374046,89.93129770992367,-8.238447912597655,9.277531433105468,-1.0869675537109373,22.506470588235295,-83.31761725696161,-168.25954198473283,-606.9050678731423,2431.5252599302603,2000
2025-11-30T16:11:35.591675,-222.16030534351145,-12.129770992366412,35.97709923664122,-9.145850341796875,4.019864587402344,-10.788272680664061,22.459411764705884,-20.436112644641327,-222.16030534351145,-2896.6301168355194,565.613221356194,2000
2025-11-30T16:11:35.610866,-70.27480916030534,13.427480916030534,20.137404580152673,-10.867281335449219,2.6336218261718747,-7.134720947265625,22.60058823529412,-20.260491130251875,-70.27480916030534,8003.793554579568,587.4802060388276,2000
2025-11-30T16:11:35.637618,-55.33587786259542,0.4580152671755725,-30.267175572519083,-7.60398447265625,3.1387983764648437,-3.421314172363281,22.506470588235295,-42.53404127140474,-55.33587786259542,633.822445302453,1241.0472964439628,2000
2025-11-30T16:11:35.679260,-52.25190839694657,20.610687022900763,47.69465648854962,-9.179369165039063,7.223306408691406,-6.136338854980468,22.553529411764707,-49.65145381832165,-52.25190839694657,69.0247786297016,1441.166564595411,2000
2025-11-30T16:11:35.706625,-76.91603053435115,-24.129770992366414,2.2213740458015265,-9.34696328125,4.153939880371094,-6.48589229736328,22.412352941176472,-32.63784462224798,-76.91603053435115,-895.7073626110844,941.5545360314053,2000
2025-11-30T16:11:35.728654,-11.870229007633588,0.26717557251908397,33.916030534351144,-11.348515869140625,4.015076184082031,-4.189852905273438,22.459411764705884,-43.7797025216422,-11.870229007633588,2941.729373171999,1273.6425425356472,2000
2025-11-30T16:11:35.747751,31.47328244274809,-18.106870229007633,-12.541984732824428,-7.44357296142578,4.017470385742187,-5.588066674804687,22.459411764705884,-35.71377232174746,31.473282442748094,2360.5560476066908,1032.1851310101488,2000
2025-11-30T16:11:35.770849,66.98473282442748,-26.19083969465649,-30.923664122137403,-8.073247998046874,3.9815573608398434,-4.431667272949219,22.459411764705884,-41.937579100044815,66.98473282442748,1619.7861798473086,1218.4608892459669,2000
2025-11-30T16:11:35.796822,118.0,-32.12977099236641,-30.389312977099237,-8.875305554199219,0.8044517578125,-7.146691955566406,22.506470588235295,-6.422340706236181,118.00000000000001,2185.1426561505336,-383.730486232956,1116
2025-11-30T16:11:35.816107,183.08396946564886,-52.12977099236641,-19.633587786259543,-6.842628344726562,7.225700610351562,-1.9823989746093749,22.459411764705884,-74.65817175903275,183.08396946564886,2812.333396510094,2188.6752050350324,2000
2025-11-30T16:11:35.842957,81.74045801526718,-184.21374045801528,-33.56488549618321,-8.623914379882812,2.4875755249023435,-3.2058360229492187,22.506470588235295,-37.809753543217276,81.74045801526718,-4578.522985495123,1083.1648749279243,2000
2025-11-30T16:11:35.861384,144.10687022900763,-188.80152671755727,-49.534351145038165,-10.065223779296874,4.479551306152343,-4.678270043945313,22.553529411764707,-43.756914115446236,144.10687022900763,2602.7710116588764,1270.9360777447284,2000
2025-11-30T16:11:35.879896,179.58778625954199,-171.12977099236642,-68.95419847328245,-11.468225952148437,0.5147533569335937,-4.503493322753906,22.506470588235295,-6.520660823244193,179.58778625954199,1915.2123860151394,-588.6366965469613,1000
2025-11-30T16:11:35.899802,198.5648854961832,-132.26717557251908,-135.89312977099237,-10.244788903808594,3.038241906738281,-5.492298608398437,22.60058823529412,-28.950588311893185,198.5648854961832,953.9733836310602,848.5874296709487,2000
2025-11-30T16:11:35.919282,210.24427480916032,-167.793893129771,-194.95419847328245,-11.394005700683593,3.306392492675781,-1.6041151123046875,22.459411764705884,-64.11939381616527,210.24427480916032,632.7668252835581,1874.7054460096654,2000
2025-11-30T16:11:35.944514,202.9770992366412,-95.54961832061069,-195.84732824427482,-9.09796630859375,1.2473790649414063,-1.9009961181640624,22.506470588235295,-33.27173544806883,202.9770992366412,-374.4839124814998,952.1634734952429,2000
2025-11-30T16:11:35.964755,220.5648854961832,-59.11450381679389,-177.58778625954199,-10.55364091796875,1.0462661254882812,-1.9991583862304687,22.459411764705884,-27.625459464691367,220.5648854961832,651.3604254151502,799.4654541455731,2000
2025-11-30T16:11:35.983329,248.6946564885496,-58.6412213740458,-200.99236641221373,-12.296619726562499,2.6886884643554687,-0.02154781494140625,22.553529411764707,-89.54082726978181,248.6946564885496,1507.2345200164348,2623.2241228995917,2000
2025-11-30T16:11:36.001827,250.12977099236642,36.778625954198475,-149.40458015267177,-8.164227661132813,0.8475473876953125,-0.6751648681640625,22.506470588235295,-51.45881637871866,250.12977099236642,77.49947216800483,1475.8535480741975,2000
2025-11-30T16:11:36.022465,250.12977099236642,94.44274809160305,-93.83206106870229,-7.999027746582031,-0.24660277099609373,-1.8004396484374998,22.60058823529412,7.799163391467988,250.12977099236642,0.0,-704.4364153577291,1000
2025-11-30T16:11:36.042322,250.12977099236642,88.59541984732824,-67.38167938931298,-8.734047656249999,-1.886630908203125,1.0845733520507812,22.506470588235295,-60.10656283906867,250.12977099236642,0.0,1772.2220499199398,2000
2025-11-30T16:11:36.061915,250.12977099236642,66.54198473282443,-70.51908396946565,-9.373299499511718,-2.501940734863281,0.40462008056640625,22.506470588235295,-80.81352115927974,250.12977099236642,0.0,2352.078863648212,2000
2025-11-30T16:11:36.083431,250.12977099236642,54.916030534351144,-69.65648854961832,-10.177751257324218,-3.3710359375,1.419761584472656,22.459411764705884,-67.16088838818547,250.12977099236642,0.0,1942.814123954045,2000
2025-11-30T16:11:36.104287,191.68702290076337,16.740458015267176,-95.73282442748092,-9.090783703613281,-2.9927520751953125,1.216254443359375,22.553529411764707,-67.88317515047244,191.68702290076337,-2766.604050603857,1968.8856163273094,2000
2025-11-30T16:11:36.122927,206.1679389312977,-2.7404580152671754,-88.65648854961832,-8.087613208007811,-3.555389465332031,3.545812658691406,22.64764705882353,-45.077270053644206,206.1679389312977,777.0105929604723,1297.4511581372758,2000
2025-11-30T16:11:36.141583,136.99236641221373,-16.87786259541985,-98.06870229007633,-8.537723120117187,-3.3351229125976563,-1.3383587280273437,22.60058823529412,68.13479467020915,136.99236641221373,-3708.329143531959,-2024.461166796428,1000
2025-11-30T16:11:36.165161,196.87786259541986,-10.98473282442748,-101.45801526717557,-7.240065820312499,-4.311957189941406,2.3918074584960936,22.60058823529412,-60.983225593274454,196.87786259541986,2823.1126217597243,1817.2084330796802,2000
2025-11-30T16:11:36.184234,157.03053435114504,-9.351145038167939,-103.59541984732824,-8.104372619628906,-4.2521021484374995,-0.16759411621093748,22.459411764705884,87.74288872276733,157.03053435114504,-1864.3740113143485,-2600.212469367658,1000
2025-11-30T16:11:36.207770,153.3969465648855,-34.13740458015267,-91.8473282442748,-7.122749938964843,-3.928884924316406,0.1484405029296875,22.459411764705884,-87.83628915687173,153.3969465648855,-154.70730970408934,2607.0574792421494,2000
2025-11-30T16:11:36.229087,148.1145038167939,-55.969465648854964,-75.05343511450381,-6.035782385253906,-3.5386300537109374,0.7517793212890624,22.459411764705884,-78.00588253574446,148.11450381679393,-246.6949934094725,2258.497880419178,2000
2025-11-30T16:11:36.247261,158.38167938931298,-46.038167938931295,-58.70229007633588,-6.964732629394531,-4.151545678710937,2.499546533203125,22.553529411764707,-58.9488580051598,158.38167938931298,563.2917668086207,1701.152622715575,2000
2025-11-30T16:11:36.266013,142.81679389312978,-53.83969465648855,-47.732824427480914,-6.191405493164062,-4.273649963378906,2.1021090576171875,22.506470588235295,-63.80849964649718,142.81679389312978,-831.9700964225767,1852.524539870105,2000
2025-11-30T16:11:36.290599,125.06106870229007,-44.961832061068705,-38.63358778625954,-6.605602380371093,-4.572925170898437,3.6296097167968746,22.506470588235295,-51.56036145577962,125.06106870229007,-841.2071386388928,1490.6082741769562,2000
2025-11-30T16:11:36.309625,87.62595419847328,-34.54961832061068,-34.2442748091603,-6.009446166992187,-4.216189123535156,3.9240965209960934,22.553529411764707,-47.05502570698589,87.62595419847328,-1667.313538034838,1362.9904490023564,2000
2025-11-30T16:11:36.333626,51.3206106870229,-31.671755725190838,-26.290076335877863,-5.853823059082031,-4.541800549316406,4.563348364257812,22.459411764705884,-44.86440677019364,51.3206106870229,-1526.3739814505416,1300.331000387694,2000
2025-11-30T16:11:36.355381,28.66412213740458,-54.02290076335878,-6.5038167938931295,-6.133944653320312,-4.848258361816406,4.206612316894531,22.506470588235295,-49.053316847561604,28.66412213740458,-1028.7888853361876,1424.06787332574,2000
2025-11-30T16:11:36.373583,-5.4961832061068705,-42.18320610687023,4.33587786259542,-4.874594580078124,-4.393360046386719,4.695029455566406,22.459411764705884,-43.098888656649706,-5.4961832061068705,-1873.3160575219842,1247.2554932353153,2000
2025-11-30T16:11:36.393261,-45.99236641221374,-27.267175572519083,25.9618320610687,-5.164292980957031,-4.7884033203125,5.231330627441406,22.553529411764707,-42.46885952240588,-45.99236641221374,-2057.9049784473254,1231.3407953267092,2000
2025-11-30T16:11:36.417858,-96.70992366412214,16.198473282442748,38.656488549618324,-4.932055419921875,-4.412513659667969,6.009446166992187,22.553529411764707,-36.288458734956905,-96.70992366412214,-2390.9190897350677,1050.0344594757428,2000
2025-11-30T16:11:36.436269,-162.31297709923663,41.81679389312977,69.58015267175573,-4.860229370117187,-4.556165759277343,5.667075329589843,22.459411764705884,-38.79828186924997,-162.31297709923663,-3018.1549385213502,1126.0739159782963,2000
2025-11-30T16:11:36.460584,-220.8320610687023,69.01526717557252,81.41984732824427,-5.815515832519531,-3.27526787109375,4.639962817382812,22.553529411764707,-35.21759296819272,-220.8320610687023,-2524.523815576917,1020.0744235680113,2000
2025-11-30T16:11:36.482643,-250.13740458015266,123.1526717557252,97.49618320610686,-5.238513232421875,-2.1356278808593747,2.9089550170898435,22.553529411764707,-36.284491395492964,-250.13740458015263,-1262.4458933213868,1052.6179380993992,2000
2025-11-30T16:11:36.501567,-250.13740458015266,154.12977099236642,116.00763358778626,-6.301538769531249,-2.3367408203125,1.5275006591796874,22.553529411764707,-56.827815520694514,-250.13740458015263,0.0,1656.6693820872852,2000
2025-11-30T16:11:36.520428,-250.13740458015266,131.4885496183206,149.3740458015267,-7.060500695800781,-1.5227122558593749,1.1875240234375,22.553529411764707,-52.05025025887314,-250.13740458015263,0.0,1507.4302171241468,2000
2025-11-30T16:11:36.540468,-250.13740458015266,122.03053435114504,103.25190839694656,-13.038822241210937,-3.1004911499023438,-1.218648645019531,22.553529411764707,68.54268221005863,-250.13740458015263,0.0,-2035.8448228634638,1000
2025-11-30T16:11:36.567240,-250.13740458015266,132.65648854961833,58.717557251908396,-6.9144543945312495,-1.6352397338867186,-4.299986181640625,22.506470588235295,20.82128540577156,-250.13740458015263,0.0,-587.6972739081883,1000
2025-11-30T16:11:36.590643,-250.13740458015266,78.43511450381679,96.38931297709924,-8.456320263671875,-2.2098481323242187,-1.4101847778320311,22.459411764705884,57.45656594081891,-250.13740458015263,0.0,-1677.3221592684065,1000
2025-11-30T16:11:36.612140,-250.13740458015266,223.15267175572518,82.30534351145039,-5.437231970214843,0.36152445068359373,-5.372588525390625,22.506470588235295,-3.8496612178654015,-250.13740458015263,0.0,1283.5134876685795,2000
2025-11-30T16:11:36.630477,-250.13740458015266,250.12977099236642,97.3587786259542,-8.796296899414061,-0.45489831542968745,-1.3215993164062498,22.553529411764707,18.993611524748864,-250.13740458015263,0.0,-534.0176679266632,1000
2025-11-30T16:11:36.648640,-250.13740458015266,234.0763358778626,3.7480916030534353,-7.5345526245117185,0.9121908325195311,-6.291961962890625,22.506470588235295,-8.249106038865,-250.13740458015263,0.0,612.6939988305489,2000
2025-11-30T16:11:36.673198,-250.13740458015266,196.8091603053435,34.35114503816794,-4.668693237304687,1.2593500732421874,-8.25520732421875,22.459411764705884,-8.673724529509919,-250.13740458015263,0.0,525.392812271783,2000
2025-11-30T16:11:36.694684,-250.13740458015266,104.86259541984732,-0.09923664122137404,-5.372588525390625,2.5905261962890624,-7.3669585083007805,22.553529411764707,-19.373775559285264,-250.13740458015263,0.0,565.6051227120108,2000
2025-11-30T16:11:36.717406,-250.13740458015266,75.98473282442748,-3.564885496183206,-8.853757739257812,3.4165257690429685,-10.91037696533203,22.60058823529412,-17.387666138474454,-250.13740458015263,0.0,503.5759102729399,2000
2025-11-30T16:11:36.738977,-250.13740458015266,-43.25190839694657,-71.8473282442748,-2.7150246826171873,6.069301208496094,-17.14248388671875,22.459411764705884,-19.49652301723722,-250.13740458015263,0.0,566.1707210935485,2000
2025-11-30T16:11:36.758607,-250.13740458015266,23.99236641221374,27.740458015267176,-2.094926452636719,4.271255761718749,-19.6133,22.459411764705884,-12.285678661315016,-250.13740458015263,0.0,353.34586364156513,1853
2025-11-30T16:11:36.777635,-155.5114503816794,3.5343511450381677,-13.114503816793894,-6.7037646484375,5.027823486328125,-6.718129858398437,22.553529411764707,-36.81104557619487,-155.5114503816794,4979.112270558306,1077.8443015420505,2000
2025-11-30T16:11:36.801844,-194.25954198473283,23.900763358778626,-24.603053435114504,-9.430760339355468,7.814075668334961,-8.947131604003905,22.553529411764707,-41.13269474060644,-194.25954198473283,-1879.1845476447181,1194.5248600059454,2000
2025-11-30T16:11:36.822187,-67.52671755725191,14.305343511450381,-20.244274809160306,-8.099584216308592,4.991910461425781,-8.051700183105469,22.553529411764707,-31.798174429043307,-67.52671755725191,5426.809519422981,918.949360361123,2000
2025-11-30T16:11:36.844295,-118.8854961832061,43.80916030534351,-30.358778625954198,-7.4699091796875,17.489643127441404,-17.762582116699217,22.459411764705884,-44.55639850903168,-118.88549618320609,-2272.926442124993,1296.6525652487687,2000
2025-11-30T16:11:36.866028,10.473282442748092,22.236641221374047,-17.50381679389313,-7.563283044433593,4.44363828125,-6.253654736328125,22.506470588235295,-35.396330197177605,10.473282442748092,5919.699335834969,1023.1401210317127,2000
2025-11-30T16:11:36.885076,19.977099236641223,-3.4427480916030535,-12.67175572519084,-4.438849877929687,3.737348791503906,0.3399766357421875,22.60058823529412,84.80226168433767,19.977099236641223,498.6165087734459,-2509.715216437062,1000
2025-11-30T16:11:36.904067,32.93893129770992,-2.450381679389313,11.320610687022901,-8.317456567382813,3.268085266113281,-8.398859423828124,22.459411764705884,-21.26153923391445,32.93893129770992,682.5852079936304,661.268186386392,2000
2025-11-30T16:11:36.924059,29.908396946564885,4.679389312977099,3.0763358778625953,-6.548141540527343,4.086902233886718,-5.030217687988281,22.60058823529412,-39.09283220893979,29.90839694656489,-151.97252930589445,1140.8456360631105,2000
2025-11-30T16:11:36.954073,32.87022900763359,-1.2290076335877862,5.977099236641221,-6.794744311523437,3.0980969482421874,-6.311115576171875,22.506470588235295,-26.1462043256607,32.87022900763359,153.46672012982046,752.8733105192853,2000
2025-11-30T16:11:36.978428,117.87022900763358,-29.9618320610687,-5.7251908396946565,-7.618349682617187,4.283226770019531,-9.823409411621093,22.506470588235295,-23.558281188969055,117.8702290076336,2428.7971005606764,682.5985742249618,2000
2025-11-30T16:11:37.000554,250.12977099236642,-60.954198473282446,9.870229007633588,-6.907271789550781,4.886565588378906,-8.913612780761719,22.60058823529412,-28.732161452613486,250.12977099236642,5945.094051920832,835.0932181185315,2000
2025-11-30T16:11:37.018880,250.12977099236642,-85.68702290076335,-2.145038167938931,-8.410830432128906,4.371812231445312,-9.478644372558593,22.553529411764707,-24.76045475667721,250.12977099236642,0.0,716.3249886250621,2000
2025-11-30T16:11:37.038708,250.12977099236642,-78.07633587786259,-42.81679389312977,-10.216058483886718,3.383006945800781,-8.410830432128906,22.553529411764707,-21.9109937478554,250.12977099236642,0.0,634.267490544545,2000
2025-11-30T16:11:37.057222,250.12977099236642,-65.90839694656489,-74.77099236641222,-6.809109521484374,2.6719290527343746,-10.014945544433592,22.506470588235295,-14.93823719084329,250.12977099236642,0.0,430.1974504039312,1930
2025-11-30T16:11:37.077361,250.12977099236642,-71.30534351145039,-96.5114503816794,-7.481880187988281,1.898601916503906,-8.327033374023436,22.506470588235295,-12.844133402110511,250.12977099236642,0.0,371.627472038695,1871
2025-11-30T16:11:37.096160,250.12977099236642,-85.02290076335878,-99.32824427480917,-6.457161877441406,2.2290017456054687,-8.33182177734375,22.506470588235295,-14.977520989052687,250.12977099236642,0.0,435.2369278721838,1935
2025-11-30T16:11:37.117812,250.12977099236642,-51.969465648854964,-85.45038167938931,-10.17056865234375,-1.4820108276367188,-6.9719152343749995,22.412352941176472,12.000664385858753,250.12977099236642,0.0,-357.99972701554924,1142
2025-11-30T16:11:37.139476,250.12977099236642,-1.5114503816793894,-73.23664122137404,-9.421183532714844,-1.369483349609375,-4.223371728515625,22.553529411764707,17.965962466300514,250.12977099236642,0.0,-523.2102262613356,1000
2025-11-30T16:11:37.158121,250.12977099236642,10.34351145038168,-70.7175572519084,-6.962338427734375,-0.852335791015625,-4.201823913574218,22.553529411764707,11.46680367198905,250.12977099236642,0.0,-329.75622681031706,1170
2025-11-30T16:11:37.176535,250.12977099236642,8.679389312977099,-45.38931297709924,-2.454056701660156,-2.0733786376953125,-2.023100402832031,22.553529411764707,45.70318583180764,250.12977099236642,0.0,-1340.2372235512282,1000
2025-11-30T16:11:37.199651,250.12977099236642,-27.80916030534351,-37.61832061068702,-7.055712292480468,-3.9312791259765625,-2.7269956909179687,22.553529411764707,55.25225992133039,250.12977099236642,0.0,-1606.2759569463062,1000
2025-11-30T16:11:37.219851,214.4198473282443,-12.106870229007633,-55.9236641221374,-8.619125976562499,-4.726154077148437,-3.8091748413085935,22.506470588235295,51.13195988020542,214.4198473282443,-1567.7186872808181,-1481.3797381938675,1000
2025-11-30T16:11:37.241616,209.36641221374046,5.870229007633588,-46.30534351145038,-6.9719152343749995,-3.909731311035156,-3.3159692993164063,22.459411764705884,49.697647239339695,209.36641221374046,-222.87273784467033,-1440.7257075449534,1000
2025-11-30T16:11:37.262377,213.6946564885496,9.50381679389313,-19.603053435114504,-6.019022973632812,-3.840299462890625,-2.4851813232421875,22.506470588235295,57.09179498325922,213.6946564885496,222.33619030764,-1658.700675323464,1000
2025-11-30T16:11:37.281425,213.91603053435114,2.732824427480916,-3.877862595419847,-6.8593877563476555,-4.278438366699218,-2.068590234375,22.506470588235295,64.19660990026283,213.91603053435117,10.746644048629376,-1864.4609235544413,1000
2025-11-30T16:11:37.301939,212.87786259541986,-1.9083969465648856,-0.33587786259541985,-7.400477331542969,-4.7381250854492185,-1.7764976318359373,22.553529411764707,69.4471276555663,212.87786259541986,-50.60422019025703,-2016.0141422887696,1000
2025-11-30T16:11:37.324642,215.21374045801528,-1.4732824427480915,-0.7709923664122137,-7.730877160644531,-5.413289953613281,-2.231395947265625,22.506470588235295,67.59820110147773,215.2137404580153,115.44803288314768,-1959.61678367348,1000
2025-11-30T16:11:37.345716,226.42748091603053,-5.129770992366412,-14.702290076335878,-8.291120349121094,-5.099649536132812,-0.39983167724609375,22.459411764705884,85.51696663898046,226.42748091603053,502.61101804908304,-2486.417127901746,1000
2025-11-30T16:11:37.367186,214.93129770992365,-6.435114503816794,-16.450381679389313,-7.201758593749999,-4.627991809082031,0.21068974609375,22.459411764705884,-87.3934042090491,214.93129770992365,-508.5372735778747,2595.598678407369,2000
2025-11-30T16:11:37.388351,233.91603053435114,2.6793893129770994,14.854961832061068,-6.955155822753905,-4.5585599609375,1.1923124267578125,22.553529411764707,-75.34238225015085,233.91603053435114,894.2114457868507,2180.3881051442054,2000
2025-11-30T16:11:37.408466,207.89312977099237,-3.4122137404580153,17.251908396946565,-7.012616662597656,-4.9823336547851556,1.4006079711914061,22.459411764705884,-74.29853839616652,207.89312977099237,-1334.8656152648214,2154.2292550114835,2000
2025-11-30T16:11:37.429218,176.61068702290078,-14.229007633587786,5.9541984732824424,-7.149086157226562,-4.994304663085937,2.269703173828125,22.506470588235295,-65.56018419086233,176.61068702290078,-1462.4987432212183,1897.9770975181343,2000
2025-11-30T16:11:37.449474,151.4351145038168,-20.893129770992367,1.3206106870229009,-6.653486413574218,-4.6351744140625,3.2154128295898436,22.553529411764707,-55.25101874918533,151.43511450381683,-1295.2187586669766,1598.0365023556521,2000
2025-11-30T16:11:37.469216,130.206106870229,-25.65648854961832,0.40458015267175573,-6.79953271484375,-4.675875842285156,2.6671406494140624,22.60058823529412,-60.29936986175438,130.206106870229,-1091.9236204989625,1750.7590397945291,2000
2025-11-30T16:11:37.491517,108.9618320610687,-21.595419847328245,-3.4885496183206106,-7.170633972167968,-4.690241052246093,2.817975354003906,22.60058823529412,-59.0018470863386,108.9618320610687,-911.1401074611207,1710.6083726029947,2000
2025-11-30T16:11:37.512634,111.67175572519083,-9.114503816793894,19.46564885496183,-6.7085530517578125,-4.180276098632812,3.1866824096679687,22.412352941176472,-52.68122413370854,111.67175572519083,127.66039943979453,1525.3734600835153,2000
2025-11-30T16:11:37.533056,107.70229007633588,-9.664122137404581,22.229007633587788,-7.1778165771484375,-4.829104748535156,2.6862942626953124,22.506470588235295,-60.91405116080741,107.70229007633588,-204.2163411980684,1769.8959051023069,2000
2025-11-30T16:11:37.553782,90.3587786259542,-15.786259541984732,16.908396946564885,-7.201758593749999,-4.627991809082031,4.161122485351562,22.553529411764707,-48.040639161938195,90.35877862595422,-798.5592843697901,1388.436620449056,2000
2025-11-30T16:11:37.577582,51.083969465648856,-16.793893129770993,2.33587786259542,-6.926425402832031,-4.728548278808593,4.541800549316406,22.553529411764707,-46.15404608054228,51.083969465648856,-1918.1472887785908,1337.7302199027804,2000
2025-11-30T16:11:37.597751,16.580152671755727,-18.603053435114504,-7.938931297709924,-7.216123803710937,-5.274426257324219,4.225765930175781,22.459411764705884,-51.29898317023978,16.580152671755727,-1552.2679880500384,1489.5222076360292,2000
2025-11-30T16:11:37.623120,-28.19083969465649,-0.10687022900763359,-26.923664122137403,-6.758831286621094,-4.42448466796875,5.518634826660156,22.60058823529412,-38.72038419971055,-28.19083969465649,-1959.564978935523,1118.4867574840175,2000
2025-11-30T16:11:37.644378,-87.1145038167939,30.916030534351144,-18.740458015267176,-6.58884296875,-4.347870214843749,6.964732629394531,22.553529411764707,-31.97527600722811,-87.1145038167939,-2350.772451296334,925.1302236918207,2000
2025-11-30T16:11:37.663057,-174.54198473282443,52.98473282442748,-29.34351145038168,-6.6271501953125,-4.862623571777344,7.292738256835937,22.459411764705884,-33.69440811532853,-174.54198473282443,-4677.680825023032,977.8736727460845,2000
2025-11-30T16:11:37.681580,-250.13740458015266,82.2824427480916,-49.61832061068702,-5.5641246582031245,-3.038241906738281,7.304709265136719,22.506470588235295,-22.583852520656357,-250.13740458015263,-4077.7058251646545,650.1371916461279,2000
2025-11-30T16:11:37.704239,-250.13740458015266,89.63358778625954,-47.85496183206107,-5.877765075683594,-3.0334535034179684,3.986345764160156,22.553529411764707,-37.26971831439048,-250.13740458015263,0.0,1086.7248940217655,2000
2025-11-30T16:11:37.728743,-250.13740458015266,56.3206106870229,-43.20610687022901,-6.593631372070312,-3.1004911499023438,2.123656872558594,22.60058823529412,-55.591115206807736,-250.13740458015263,0.0,1619.1168042814634,2000
2025-11-30T16:11:37.747382,-250.13740458015266,16.419847328244273,-9.396946564885496,-6.248866333007812,-2.2768857788085937,0.5339069702148437,22.60058823529412,-76.80314296009762,-250.13740458015263,0.0,2234.124061984661,2000
2025-11-30T16:11:37.768763,-250.13740458015266,6.374045801526718,26.85496183206107,-5.102043737792968,-0.948103857421875,-2.4564509033203126,22.553529411764707,21.104838584929634,-250.13740458015263,0.0,-648.5995238350382,1000
2025-11-30T16:11:37.787448,-250.13740458015266,5.541984732824427,55.030534351145036,-6.60799658203125,-0.0047884033203125,-2.5067291381835934,22.553529411764707,0.10944739221323681,-250.13740458015263,0.0,1283.5339951207513,2000
2025-11-30T16:11:37.806075,-250.13740458015266,88.91603053435115,78.44274809160305,-7.924807495117187,-1.0845733520507812,0.948103857421875,22.553529411764707,-48.84094902533696,-250.13740458015263,0.0,1446.437086085575,2000
2025-11-30T16:11:37.827795,-250.13740458015266,73.17557251908397,39.74045801526717,-7.1035963256835934,0.12449848632812499,-6.179434484863281,22.506470588235295,-1.154195084018615,-250.13740458015263,0.0,1283.5409893445358,2000
2025-11-30T16:11:37.850137,-250.13740458015266,90.90076335877863,31.778625954198475,-7.266402038574219,1.3527239379882812,-7.062894897460937,22.60058823529412,-10.842298558984616,-250.13740458015263,0.0,301.02595683409044,1801
2025-11-30T16:11:37.872869,-250.13740458015266,68.68702290076335,24.129770992366414,-6.035782385253906,2.1260510742187497,-8.717288244628906,22.553529411764707,-13.706236479329585,-250.13740458015263,0.0,398.4345119395429,1898
2025-11-30T16:11:37.894500,-250.13740458015266,29.580152671755727,8.198473282442748,-6.5026517089843745,2.7269956909179687,-10.802637890625,22.553529411764707,-14.167635028846544,-250.13740458015263,0.0,411.03185637438946,1911
2025-11-30T16:11:37.914661,-250.13740458015266,28.9618320610687,0.2366412213740458,-7.048529687499999,2.8993782104492185,-10.204087475585936,22.64764705882353,-15.861910666196534,-250.13740458015263,0.0,460.705445372789,1960
2025-11-30T16:11:37.932975,-250.13740458015266,30.14503816793893,-9.17557251908397,-6.8976949829101555,3.287238879394531,-8.99501563720703,22.553529411764707,-20.074889340579997,-250.13740458015263,0.0,583.9085786799387,2000
2025-11-30T16:11:37.952822,-230.83969465648855,25.603053435114504,-14.633587786259541,-7.261613635253906,3.1699229980468746,-7.575254052734374,22.553529411764707,-22.70724518456822,-230.83969465648858,975.527135067239,659.5746655002638,2000
2025-11-30T16:11:37.979926,-202.64885496183206,22.9618320610687,0.6106870229007634,-6.260837341308593,3.411737365722656,-9.60793126220703,22.553529411764707,-19.549743823695888,-202.64885496183206,1054.6869297534258,565.9975332928243,2000
2025-11-30T16:11:38.006986,-124.0381679389313,-6.030534351145038,5.076335877862595,-6.754042883300781,3.327940307617187,-7.548917834472656,22.553529411764707,-23.790283066195983,-124.0381679389313,2995.957611925971,691.2111095471555,2000
2025-11-30T16:11:38.027628,-109.42748091603053,-7.374045801526718,4.137404580152672,-7.259219433593749,2.829946362304687,-9.279925634765624,22.459411764705884,-16.95927151477263,-109.42748091603053,667.6289685466907,489.3217531898351,1989
2025-11-30T16:11:38.047229,-84.64885496183206,-10.099236641221374,-2.2061068702290076,-6.548141540527343,3.7804444213867185,-9.593566052246093,22.459411764705884,-21.50743553163675,-84.64885496183206,1309.722375670411,625.6388467223946,2000
2025-11-30T16:11:38.065931,-45.29007633587786,-11.83206106870229,4.938931297709924,-6.720524060058593,3.766079211425781,-7.556100439453124,22.459411764705884,-26.492386942715587,-45.29007633587786,2029.6385687266918,770.3357180086933,2000
2025-11-30T16:11:38.088731,-60.20610687022901,-2.045801526717557,-0.6106870229007634,-6.902483386230468,3.4093431640625,-9.03332286376953,22.553529411764707,-20.67743440133423,-60.206106870229014,-745.2869357470597,597.3212215113577,2000
2025-11-30T16:11:38.107503,-30.045801526717558,-3.0,-0.04580152671755725,-6.45476767578125,4.182670300292968,-8.774749084472656,22.506470588235295,-25.485793769803063,-30.045801526717558,1402.3000703193823,740.8765324321577,2000
2025-11-30T16:11:38.133330,2.6793893129770994,-12.664122137404581,2.8473282442748094,-6.074089611816406,4.563348364257812,-7.46272657470703,22.506470588235295,-31.445177138348985,2.6793893129770994,1284.2744354696958,913.7811076045007,2000
2025-11-30T16:11:38.154923,9.198473282442748,-5.862595419847328,3.0763358778625953,-7.244854223632812,3.4763808105468748,-7.062894897460937,22.412352941176472,-26.20656757181421,9.198473282442748,296.91950145474107,758.0816695156678,2000
2025-11-30T16:11:38.175117,24.229007633587788,-3.595419847328244,8.717557251908397,-6.272808349609375,3.5482068603515624,-7.819462622070312,22.553529411764707,-24.406935175397074,24.229007633587788,768.9532274336165,707.0645750737618,2000
2025-11-30T16:11:38.196789,63.32824427480916,-6.67175572519084,11.885496183206106,-7.012616662597656,3.3638533325195312,-8.219294299316406,22.459411764705884,-22.257471390914752,63.32824427480916,1999.1964481436223,644.5874305901805,2000
2025-11-30T16:11:38.216950,115.82442748091603,-9.84732824427481,20.221374045801525,-5.882553479003906,4.201823913574218,-7.089231115722656,22.553529411764707,-30.65544141197084,115.82442748091601,2481.2088122300497,892.1832115691843,2000
2025-11-30T16:11:38.237202,132.06106870229007,-48.82442748091603,17.442748091603054,-5.228936425781249,4.402936853027343,-8.74601866455078,22.553529411764707,-26.721682223508136,132.06106870229007,783.0268272705472,773.4111114928011,2000
2025-11-30T16:11:38.259758,224.29007633587787,-92.26717557251908,29.053435114503817,-5.533000036621093,4.6998178588867185,-9.801861596679688,22.506470588235295,-25.616887226821213,224.2900763358779,4310.588199748029,742.4766433787504,2000
2025-11-30T16:11:38.281255,250.12977099236642,-125.2442748091603,38.267175572519086,-7.829039428710937,2.3822306518554686,-12.571952917480468,22.553529411764707,-10.729635430716199,250.12977099236642,1079.9614832991724,306.18176541056164,1806
2025-11-30T16:11:38.301380,250.12977099236642,-95.21374045801527,32.267175572519086,-8.559270935058594,2.3343466186523436,-13.20881055908203,22.553529411764707,-10.022197998187284,250.12977099236642,0.0,290.35372421692693,1790
2025-11-30T16:11:38.320328,250.12977099236642,-81.93129770992367,30.251908396946565,-7.168239770507812,2.9640216552734375,-8.233659509277343,22.506470588235295,-19.798286387994754,250.12977099236642,0.0,578.163212536808,2000
2025-11-30T16:11:38.343320,250.12977099236642,-96.18320610687023,3.1755725190839694,-6.698976245117187,2.2074539306640624,-6.533776330566406,22.459411764705884,-18.667678231528473,250.12977099236642,0.0,540.8988695737224,2000
2025-11-30T16:11:38.366167,250.12977099236642,-140.74809160305344,4.251908396946565,-6.7803791015625,0.36391865234375,-5.418078356933593,22.459411764705884,-3.842641223445253,250.12977099236642,0.0,-1283.4718813248799,1000
2025-11-30T16:11:38.388727,250.12977099236642,-102.44274809160305,-14.740458015267176,-12.526463085937499,-5.468356591796875,-5.820304235839844,22.459411764705884,43.21426251029253,250.12977099236642,0.0,-1272.1277543407307,1000
2025-11-30T16:11:38.410384,250.12977099236642,-61.87022900763359,-54.57251908396947,-8.836998327636719,-1.6256629272460936,-4.3813890380859375,22.459411764705884,20.356780255047752,250.12977099236642,0.0,-581.9538033350085,1000
2025-11-30T16:11:38.429238,250.12977099236642,-24.259541984732824,-29.603053435114504,-6.945579016113281,-1.369483349609375,-1.9536685546875,22.553529411764707,35.029702389451245,250.12977099236642,0.0,-1022.0764691842629,1000
2025-11-30T16:11:38.448201,250.12977099236642,-31.068702290076335,-20.297709923664122,-7.089231115722656,-1.7238251953125,-2.133233679199219,22.60058823529412,38.94101227602166,250.12977099236642,0.0,-1130.9418589210202,1000
2025-11-30T16:11:38.469575,233.45038167938932,-54.69465648854962,-34.083969465648856,-8.303091357421874,-3.394977954101562,-1.5131354492187499,22.506470588235295,65.97755470510829,233.45038167938932,-781.7195681559126,-1923.48614548574,1000
2025-11-30T16:11:38.499230,207.0229007633588,-44.3587786259542,-44.69465648854962,-7.824251025390624,-2.511517541503906,-2.252943762207031,22.459411764705884,48.10647217014676,207.0229007633588,-1047.3664762645562,-1389.4215992793524,1000
2025-11-30T16:11:38.522930,197.18320610687022,-42.7557251908397,-30.114503816793892,-7.137115148925781,-3.0334535034179684,-0.7637503295898437,22.459411764705884,75.86803321003036,197.18320610687022,-370.91564126370423,-2208.544927933346,1000
2025-11-30T16:11:38.545046,193.793893129771,-53.83969465648855,-22.732824427480917,-8.149862451171874,-3.9647979492187497,-1.199495031738281,22.506470588235295,73.16753213744177,193.793893129771,-142.79352093917188,-2120.9482438525574,1000
2025-11-30T16:11:38.564591,185.68702290076337,-60.404580152671755,-36.0,-8.487444885253906,-4.458003491210937,-1.8124106567382812,22.459411764705884,67.87569643106826,185.68702290076337,-414.5808579807547,-1966.2302241005666,1000
2025-11-30T16:11:38.583693,184.67175572519085,-77.93893129770993,-48.94656488549618,-7.821856823730468,-4.00310517578125,-1.0103531005859374,22.459411764705884,75.83482109962002,184.67175572519085,-52.99605704366451,-2202.5334865637915,1000
2025-11-30T16:11:38.607617,188.68702290076337,-100.85496183206106,-57.88549618320611,-7.352593298339843,-3.842693664550781,-0.7398083129882812,22.506470588235295,79.10255701216546,188.68702290076337,193.4264158539589,-2295.233479654901,1000
2025-11-30T16:11:38.627797,203.38167938931298,-136.0229007633588,-77.83969465648855,-7.314286071777343,-4.0988732421875,0.1149216796875,22.506470588235295,-88.39399701071775,203.38167938931298,673.3291435997821,2624.8252723847877,2000
2025-11-30T16:11:38.652208,213.17557251908397,-144.8320610687023,-88.77099236641222,-7.302315063476562,-4.448426684570312,1.6472107421875,22.553529411764707,-69.68088068458304,213.17557251908397,380.82606478135995,2014.9244083736478,2000
2025-11-30T16:11:38.674359,206.0763358778626,-78.65648854961832,-73.86259541984732,-6.193799694824218,-3.797203833007812,6.291961962890625,22.60058823529412,-31.111013211839257,206.0763358778626,-318.3105098211703,888.3844374448704,2000
2025-11-30T16:11:38.694652,147.18320610687022,-59.908396946564885,-64.46564885496183,-5.008669873046875,-4.007893579101562,7.570465649414062,22.553529411764707,-27.89727103094763,147.18320610687022,-2994.2747499393,807.7137020537766,2000
2025-11-30T16:11:38.712880,85.85496183206106,-49.908396946564885,-45.229007633587784,-4.668693237304687,-3.6248213134765623,7.134720947265625,22.412352941176472,-26.933014731600235,85.85496183206106,-3248.9933344466363,780.648759096023,2000
2025-11-30T16:11:38.732737,18.03053435114504,-33.12977099236641,-40.587786259541986,-4.790797521972656,-4.690241052246093,7.532158422851562,22.506470588235295,-31.910335524435304,18.03053435114504,-3412.4594247027017,927.4031270236204,2000
2025-11-30T16:11:38.754872,-42.954198473282446,-19.34351145038168,-27.50381679389313,-4.740519287109374,-4.242525341796875,6.868964562988281,22.506470588235295,-31.701004494157974,-42.954198473282446,-2951.4626299478164,919.2480828048105,2000
2025-11-30T16:11:38.775363,-94.94656488549619,3.519083969465649,-9.534351145038167,-4.149151477050781,-4.237736938476562,6.9360022094726554,22.36529411764706,-31.423965323628252,-94.94656488549619,-2372.356894021167,911.1938663417817,2000
2025-11-30T16:11:38.793998,-157.49618320610688,31.14503816793893,14.778625954198473,-4.613626599121093,-4.3430818115234375,8.420407238769531,22.553529411764707,-27.283800941537525,-157.49618320610688,-3348.2925481865727,789.4572372309776,2000
2025-11-30T16:11:38.816156,-250.13740458015266,45.80916030534351,25.435114503816795,-4.223371728515625,-3.076549133300781,7.264007836914062,22.412352941176472,-22.95427491763674,-250.13740458015263,-4185.053156560817,664.1092871477814,2000
2025-11-30T16:11:38.834605,-250.13740458015266,79.80152671755725,68.50381679389314,-4.814739538574218,-3.488351818847656,6.232106921386718,22.459411764705884,-29.237430594746893,-250.13740458015263,0.0,850.6094651784971,2000
2025-11-30T16:11:38.854517,-250.13740458015266,118.00763358778626,107.47328244274809,-5.430049365234375,-3.725377783203125,4.256890551757812,22.553529411764707,-41.19048765809634,-250.13740458015263,0.0,1199.3663253568484,2000
2025-11-30T16:11:38.874184,-250.13740458015266,122.2442748091603,121.13740458015268,-4.939238024902344,-1.3575123413085937,2.3511060302734372,22.506470588235295,-30.00183942542513,-250.13740458015263,0.0,865.5494235679649,2000
2025-11-30T16:11:38.902346,-250.13740458015266,128.3740458015267,144.53435114503816,-7.307103466796875,-1.16837041015625,-0.2442085693359375,22.64764705882353,78.19420769941095,-250.13740458015263,0.0,-2307.704618467296,1000
2025-11-30T16:11:38.927486,-250.13740458015266,104.50381679389314,109.58778625954199,-6.766013891601562,0.507570751953125,-3.418919970703125,22.553529411764707,-8.444417740719881,-250.13740458015263,0.0,583.1653662033619,2000
2025-11-30T16:11:38.949713,-250.13740458015266,85.56488549618321,102.13740458015268,-7.012616662597656,1.8507178833007811,-5.274426257324219,22.506470588235295,-19.335214801552205,-250.13740458015263,0.0,564.6269045445757,2000
2025-11-30T16:11:38.969705,-250.13740458015266,68.31297709923665,84.09923664122137,-7.505822204589843,2.7078420776367187,-6.275202551269531,22.553529411764707,-23.340907244591417,-250.13740458015263,0.0,678.542895760338,2000
2025-11-30T16:11:38.987999,-250.13740458015266,58.847328244274806,74.51908396946565,-5.906495495605468,4.412513659667969,-5.928043310546875,22.553529411764707,-36.661995775123444,-250.13740458015263,0.0,1068.8114606404474,2000
2025-11-30T16:11:39.012667,-250.13740458015266,38.282442748091604,70.61832061068702,-6.4643444824218745,4.805162731933594,-5.820304235839844,22.459411764705884,-39.54260948932535,-250.13740458015263,0.0,1147.809299877941,2000
2025-11-30T16:11:39.032660,-250.13740458015266,2.5877862595419847,48.98473282442748,-7.043741284179687,5.614402893066406,-8.736441857910156,22.506470588235295,-32.726495910015835,-250.13740458015263,0.0,946.6473925093201,2000
2025-11-30T16:11:39.055291,-250.13740458015266,8.82442748091603,17.419847328244273,-8.657433203124999,5.609614489746093,-11.279084020996093,22.459411764705884,-26.443300872625073,-250.13740458015263,0.0,764.6027005922597,2000
2025-11-30T16:11:39.075238,-221.99236641221373,19.00763358778626,-9.16793893129771,-8.030152368164062,5.360617517089843,-12.045228552246092,22.60058823529412,-23.991012730806684,-221.99236641221373,1343.5405418366893,694.8028635062062,2000
2025-11-30T16:11:39.093861,-130.5648854961832,8.061068702290076,-4.061068702290076,-6.665457421875,6.442796667480469,-8.863334545898438,22.553529411764707,-36.01356717343996,-130.5648854961832,4896.37949023252,1049.5443710041918,2000
2025-11-30T16:11:39.112066,-94.83206106870229,5.885496183206107,-3.66412213740458,-7.228094812011718,5.592855078125,-6.739677673339843,22.60058823529412,-39.68724955968548,-94.8320610687023,1962.168160397487,1152.5440772169866,2000
2025-11-30T16:11:39.138610,-79.01526717557252,4.114503816793893,2.0610687022900764,-7.874529260253905,5.181052392578125,-8.9255837890625,22.506470588235295,-30.133969582725985,-79.01526717557252,694.1191932318054,870.5311562630206,2000
2025-11-30T16:11:39.157340,-47.62595419847328,13.305343511450381,5.488549618320611,-8.291120349121094,4.402936853027343,-10.134655627441406,22.553529411764707,-23.482230669406007,-47.62595419847328,1401.4191386140747,678.6088810030797,2000
2025-11-30T16:11:39.179014,-5.244274809160306,17.076335877862597,9.206106870229007,-7.6087728759765625,4.740519287109374,-7.975085729980468,22.60058823529412,-30.727931021792898,-5.244274809160306,1972.4775289811803,893.8077655219258,2000
2025-11-30T16:11:39.200140,-0.5343511450381679,22.778625954198475,6.366412213740458,-7.151480358886718,3.1220389648437497,-7.003039855957031,22.506470588235295,-24.027884718745497,-0.5343511450381679,220.96902343510854,694.2939618393974,2000
2025-11-30T16:11:39.219869,-24.435114503816795,21.72519083969466,-1.3893129770992367,-6.1818286865234375,3.7900212280273435,-6.581660363769531,22.553529411764707,-29.935306451460605,-24.435114503816795,-1247.9405870630976,870.5914606119107,2000
2025-11-30T16:11:39.239770,-35.80152671755725,-2.045801526717557,-11.114503816793894,-6.5505357421875,4.070142822265625,-6.244077929687499,22.459411764705884,-33.09793693054945,-35.80152671755725,-559.142749067479,961.0847937338049,2000
2025-11-30T16:11:39.260434,-8.923664122137405,-18.46564885496183,-5.702290076335878,-6.720524060058593,3.7134067749023436,-5.906495495605468,22.459411764705884,-32.15752689415152,-8.923664122137405,1426.7047166485675,932.1689364395196,2000
2025-11-30T16:11:39.281579,18.85496183206107,-16.106870229007633,0.22137404580152673,-7.611167077636718,4.058171813964844,-7.144297753906249,22.459411764705884,-29.59785254834845,18.85496183206107,1207.1530901406832,857.4478544603595,2000
2025-11-30T16:11:39.304285,77.64885496183206,-9.816793893129772,0.5801526717557252,-6.567295153808593,4.649539624023437,-9.057264880371093,22.459411764705884,-27.173660356851098,77.64885496183207,2611.2312959801247,787.174819189143,2000
2025-11-30T16:11:39.323568,200.26717557251908,15.679389312977099,27.862595419847327,-7.295132458496093,5.0182466796875,-10.120290417480469,22.506470588235295,-26.374971089304598,200.26717557251908,6497.523942373467,764.5355823228817,2000
2025-11-30T16:11:39.344981,250.12977099236642,19.893129770992367,78.03053435114504,-6.825868933105468,5.260061047363281,-9.660603698730467,22.506470588235295,-28.56766226361912,250.12977099236642,2562.568260201773,829.3637103918151,2000
2025-11-30T16:11:39.363636,250.12977099236642,-32.969465648854964,59.51908396946565,-7.180210778808593,5.147533569335937,-10.338162768554687,22.459411764705884,-26.469434352135764,250.12977099236642,0.0,766.817683510131,2000
2025-11-30T16:11:39.382891,250.12977099236642,-54.86259541984733,45.93893129770992,-7.694964135742187,2.786850732421875,-11.693280908203125,22.459411764705884,-13.405185038644062,250.12977099236642,0.0,383.12512916835504,1883
2025-11-30T16:11:39.403599,250.12977099236642,-67.99236641221374,26.480916030534353,-7.733271362304687,2.7629087158203123,-12.466608044433594,22.60058823529412,-12.496181127366249,250.12977099236642,0.0,362.04723531384207,1862
2025-11-30T16:11:39.422344,250.12977099236642,-58.045801526717554,36.465648854961835,-6.327874987792969,1.3910311645507811,-11.341333264160156,22.553529411764707,-6.992487428185538,250.12977099236642,0.0,-692.1312436255558,1000
2025-11-30T16:11:39.442498,250.12977099236642,-72.62595419847328,24.85496183206107,-7.445967163085937,1.8435352783203125,-7.161057165527343,22.553529411764707,-14.43668648251913,250.12977099236642,0.0,421.5876713042238,1921
2025-11-30T16:11:39.461520,250.12977099236642,-82.42748091603053,11.82442748091603,-6.564900952148437,1.139639990234375,-6.078878015136718,22.459411764705884,-10.618292777831579,250.12977099236642,0.0,306.32418146752326,1806
2025-11-30T16:11:39.481891,250.12977099236642,-92.2442748091603,-3.618320610687023,-6.828263134765624,0.47165772705078124,-6.337451794433593,22.459411764705884,-4.256327092868487,250.12977099236642,0.0,-1283.4745927444894,1000
2025-11-30T16:11:39.502470,250.12977099236642,-97.16030534351145,3.801526717557252,-9.356540087890625,-1.9871873779296874,-4.76924970703125,22.553529411764707,22.619864948040426,250.12977099236642,0.0,-670.0287200863563,1000
2025-11-30T16:11:39.524137,250.12977099236642,-97.25190839694656,-7.396946564885496,-8.664615808105468,-1.8195932617187498,-3.9456443359374997,22.459411764705884,24.757500243184538,250.12977099236642,0.0,-718.8086147150475,1000
2025-11-30T16:11:39.543657,250.12977099236642,-87.12213740458016,14.01526717557252,-7.771578588867187,-1.0079588989257813,-1.4604630126953124,22.506470588235295,34.61203828518114,250.12977099236642,0.0,-1007.2601950002996,1000
2025-11-30T16:11:39.562880,250.12977099236642,-95.19847328244275,13.442748091603054,-7.115567333984375,-1.9105729248046874,-1.6160861206054686,22.459411764705884,49.77329882522315,250.12977099236642,0.0,-1449.7284285632638,1000
2025-11-30T16:11:39.581754,250.12977099236642,-104.52671755725191,0.26717557251908397,-7.9295958984374995,-2.942473840332031,-1.3335703247070312,22.553529411764707,65.61930108392473,250.12977099236642,0.0,-1909.9015755111789,1000
2025-11-30T16:11:39.602007,250.12977099236642,-96.54198473282443,-4.229007633587786,-6.976703637695312,-1.5729904907226562,-2.4899697265625,22.506470588235295,32.281862204096676,250.12977099236642,0.0,-923.4160337323603,1000
2025-11-30T16:11:39.622465,250.12977099236642,-79.76335877862596,24.938931297709924,-6.928819604492187,-1.6136919189453125,0.13646949462890623,22.553529411764707,-85.16601361839034,250.12977099236642,0.0,2519.670764884994,2000
2025-11-30T16:11:39.647895,250.12977099236642,-60.9236641221374,31.541984732824428,-7.113173132324218,-2.3056161987304686,1.6208745239257811,22.506470588235295,-54.892343685506454,250.12977099236642,0.0,1579.9350610393774,2000
2025-11-30T16:11:39.667110,183.1679389312977,-57.54961832061068,18.82442748091603,-7.232883215332031,-2.6862942626953124,1.3144167114257812,22.459411764705884,-63.92727423105435,183.1679389312977,-2669.9077899981817,1856.7728847747942,2000
2025-11-30T16:11:39.686320,172.90076335877862,-83.8473282442748,10.412213740458014,-8.207323291015625,-3.1483751831054687,1.0079588989257813,22.36529411764706,-72.24742398248803,172.90076335877862,-510.8987492290788,2098.4874072380812,2000
2025-11-30T16:11:39.704533,156.59541984732823,-97.04580152671755,-4.290076335877862,-7.809885815429687,-2.722207287597656,2.3391350219726563,22.506470588235295,-49.328230876990276,156.59541984732823,-893.712576760588,1420.4688998607555,2000
2025-11-30T16:11:39.725611,100.52671755725191,-65.80152671755725,-19.52671755725191,-7.338228088378906,-3.114856359863281,5.95677373046875,22.459411764705884,-27.605516504838693,100.52671755725191,-2663.116688447855,792.3058017751512,2000
2025-11-30T16:11:39.746191,7.603053435114504,-32.02290076335878,-33.01526717557252,-7.864952453613281,-3.0310593017578125,7.472303381347656,22.506470588235295,-22.07940413993528,7.603053435114504,-4999.29575200597,637.9242800487274,2000
2025-11-30T16:11:39.771462,-140.09923664122138,6.259541984732825,-60.36641221374046,-7.572859851074218,-2.9640216552734375,7.630320690917968,22.506470588235295,-21.22881307892591,-140.09923664122138,-7025.417108859459,615.3119143279591,2000
2025-11-30T16:11:39.791216,-250.13740458015266,83.2824427480916,-83.22900763358778,-7.003039855957031,-1.879448303222656,10.225635290527343,22.506470588235295,-10.414597060466281,-250.13740458015263,-4245.7042659920435,298.685275675415,1798
2025-11-30T16:11:39.809454,-250.13740458015266,151.13740458015266,-60.3587786259542,-5.942408520507812,0.5698199951171875,9.919177478027343,22.459411764705884,3.2878167442784676,-250.13740458015263,0.0,1283.5367614122515,2000
2025-11-30T16:11:39.828801,-250.13740458015266,180.16030534351145,-71.6793893129771,-5.013458276367187,3.574543078613281,8.614337573242187,22.459411764705884,22.536140600848206,-250.13740458015263,0.0,-667.6526493186956,1000
2025-11-30T16:11:39.849507,-250.13740458015266,215.7709923664122,24.198473282442748,-2.8012159423828122,7.4411787597656245,0.16519991455078123,22.506470588235295,88.72819836961601,-250.13740458015263,0.0,-2597.952121094898,1000
2025-11-30T16:11:39.870258,-250.13740458015266,250.12977099236642,67.50381679389314,-4.546588952636719,7.429207751464843,0.4429273071289062,22.459411764705884,86.58808024947255,-250.13740458015263,0.0,-2510.1187106001626,1000
2025-11-30T16:11:39.889753,-250.13740458015266,175.06106870229007,37.6793893129771,-5.578489868164062,8.86812294921875,1.6543933471679686,22.412352941176472,79.43265511987393,-250.13740458015263,0.0,-2300.7784569597657,1000
2025-11-30T16:11:39.910845,-250.13740458015266,110.8854961832061,-14.49618320610687,-4.261678955078125,11.623849060058593,-5.590460876464843,22.506470588235295,-64.31488953134539,-250.13740458015263,0.0,1916.5794003487974,2000
2025-11-30T16:11:39.932402,-250.13740458015266,24.69465648854962,-59.29007633587786,-8.657433203124999,8.695740429687499,-16.512808850097656,22.553529411764707,-27.771549686605113,-250.13740458015263,0.0,791.7924003766033,2000
2025-11-30T16:11:39.952127,-250.13740458015266,-66.45038167938931,-144.93893129770993,-8.13310303955078,8.695740429687499,-19.6133,22.506470588235295,-23.910553003022198,-250.13740458015263,0.0,691.7851589138935,2000
2025-11-30T16:11:39.972862,-7.8320610687022905,-80.93893129770993,-98.49618320610686,-6.5385647338867185,9.847351428222655,-17.793706738281248,22.459411764705884,-28.960916184790893,-7.8320610687022905,11304.68261211166,841.7515547090205,2000
2025-11-30T16:11:40.006771,187.89312977099237,-61.274809160305345,-16.18320610687023,-2.6288334228515624,10.565611926269531,-19.6133,22.506470588235295,-28.311181748610387,187.89312977099237,8374.197456311726,820.8018770795549,2000
2025-11-30T16:11:40.031219,250.12977099236642,-141.3969465648855,-1.4045801526717556,-9.926360083007811,7.766790185546874,-19.6133,22.553529411764707,-21.603372257786024,250.12977099236642,1780.3076754557446,624.9627557323056,2000
2025-11-30T16:11:40.051939,250.12977099236642,-215.1908396946565,-38.595419847328245,-10.28549033203125,8.8489693359375,-18.98123076171875,22.60058823529412,-24.99473366614392,250.12977099236642,0.0,726.1553724381392,2000
2025-11-30T16:11:40.072155,250.12977099236642,-205.93129770992365,-84.22137404580153,-10.960655200195312,11.805808386230469,-10.005368737792969,22.553529411764707,-49.718876118777914,250.12977099236642,0.0,1451.9554143247556,2000
2025-11-30T16:11:40.091251,250.12977099236642,-183.27480916030535,-126.55725190839695,-9.425971936035156,8.348581188964843,-5.128379956054687,22.459411764705884,-58.438358582090125,250.12977099236642,0.0,1698.3551803763169,2000
2025-11-30T16:11:40.114523,250.12977099236642,-103.66412213740458,-112.90076335877863,-4.53940634765625,10.491391674804687,1.66636435546875,22.412352941176472,80.9750092490253,250.12977099236642,0.0,-2402.3623356034836,1000
2025-11-30T16:11:40.133397,250.12977099236642,-45.12213740458015,-38.06106870229008,-2.8706477905273435,5.894524487304687,10.149020837402343,22.60058823529412,30.147906625259655,250.12977099236642,0.0,-855.8940880214974,1000
2025-11-30T16:11:40.156567,250.05343511450383,-41.10687022900763,-16.12213740458015,-2.858676782226562,1.5227122558593749,11.403582507324218,22.506470588235295,7.605674364139559,250.05343511450383,-3.289861263255677,-725.3180592764284,1000
2025-11-30T16:11:40.178027,18.870229007633586,-2.381679389312977,-12.198473282442748,-7.6614453125,-2.094926452636719,10.110713610839843,22.64764705882353,-11.705967935061457,18.870229007633586,-10774.038001609688,346.6730522092151,1846
2025-11-30T16:11:40.200507,-218.09923664122138,109.36641221374046,-5.290076335877862,-6.514622717285156,-1.4939818359375,12.876016528320312,22.412352941176472,-6.618335759361278,-218.09923664122138,-10660.509874604273,818.4398297367087,2000
2025-11-30T16:11:40.222165,-250.13740458015266,237.2290076335878,3.2900763358778624,-9.382876306152344,-0.718260498046875,16.2039568359375,22.553529411764707,-2.538045145139802,-250.13740458015263,-1484.5588777680564,1283.542966661237,2000
2025-11-30T16:11:40.240596,-250.13740458015266,250.12977099236642,-28.900763358778626,-7.675810522460937,8.786720092773438,14.276624499511717,22.553529411764707,31.61071873102812,-250.13740458015263,0.0,-933.066662668909,1000
2025-11-30T16:11:40.263448,-250.13740458015266,250.12977099236642,28.916030534351144,-6.011840368652344,12.552799304199217,6.030993981933594,22.506470588235295,64.33803702771534,-250.13740458015263,0.0,-1878.676706031929,1000
2025-11-30T16:11:40.288786,-250.13740458015266,250.12977099236642,27.435114503816795,-4.774038110351563,11.755530151367187,-6.241683728027343,22.553529411764707,-62.033609501986895,-250.13740458015263,0.0,1844.312208918848,2000
2025-11-30T16:11:40.308392,-250.13740458015266,83.2824427480916,-141.81679389312978,-8.573636145019531,10.943895788574219,-12.296619726562499,22.60058823529412,-41.66883362086778,-250.13740458015263,0.0,1201.6804159142737,2000
2025-11-30T16:11:40.326740,-250.13740458015266,-98.16793893129771,-140.00763358778627,-0.5195417602539062,16.440982800292968,-19.6133,22.506470588235295,-39.97165131803175,-250.13740458015263,0.0,1158.4743576201474,2000
2025-11-30T16:11:40.347202,54.6412213740458,-178.18320610687022,-3.030534351145038,-0.7254431030273437,13.007697619628905,-19.6133,22.506470588235295,-33.55265620829637,54.6412213740458,15358.31763407019,970.4393166672382,2000
2025-11-30T16:11:40.367705,250.12977099236642,-225.90076335877862,-24.938931297709924,-11.176133349609374,4.7189714721679685,-19.6133,22.506470588235295,-13.528265756688647,250.12977099236642,9267.458667627247,384.72539162608524,1884
2025-11-30T16:11:40.392398,250.12977099236642,-250.13740458015266,-85.29007633587786,-8.84178673095703,7.975085729980468,-19.6133,22.506470588235295,-22.127456032981378,250.12977099236642,0.0,644.9886055790245,2000
2025-11-30T16:11:40.411680,250.12977099236642,-250.13740458015266,-100.48091603053435,-14.302960717773436,7.3669585083007805,-15.435418103027343,22.60058823529412,-25.51403493585218,250.12977099236642,0.0,741.1109239282564,2000
2025-11-30T16:11:40.432776,250.12977099236642,-242.2290076335878,-200.1679389312977,-12.20085166015625,10.35492218017578,-5.849034655761718,22.459411764705884,-60.53982832618666,250.12977099236642,0.0,1768.566677754039,2000
2025-11-30T16:11:40.453911,250.12977099236642,-239.27480916030535,-221.2290076335878,-1.9033903198242186,11.587936035156249,4.503493322753906,22.506470588235295,68.76206349113242,250.12977099236642,0.0,-2043.0125099138465,1000
2025-11-30T16:11:40.473346,250.12977099236642,-250.13740458015266,-138.54961832061068,3.907337109375,11.882422839355469,14.425065002441405,22.506470588235295,39.479459047700395,250.12977099236642,0.0,-1132.041038709422,1000
2025-11-30T16:11:40.494658,250.12977099236642,-161.2290076335878,-60.05343511450382,1.0749965454101562,5.736507177734374,17.274164978027343,22.412352941176472,18.370601025557377,250.12977099236642,0.0,-525.2394453327894,1000
2025-11-30T16:11:40.522591,-250.13740458015266,207.6259541984733,78.29770992366412,0.7876923461914062,3.9743747558593747,17.470489514160157,22.459411764705884,12.816143721767265,-250.13740458015263,-17942.69529234344,-370.0744285890333,1129
2025-11-30T16:11:40.545853,-250.13740458015266,250.12977099236642,216.75572519083968,-0.09816226806640624,8.257601525878906,14.458583825683593,22.506470588235295,29.73159685954682,-250.13740458015263,0.0,-868.0136473882317,1000
2025-11-30T16:11:40.566721,-250.13740458015266,250.12977099236642,242.66412213740458,-3.6248213134765623,14.508862060546875,1.8818425048828125,22.412352941176472,82.60982422133395,-250.13740458015263,0.0,-2416.117424089074,1000
2025-11-30T16:11:40.585883,-250.13740458015266,250.12977099236642,214.98473282442748,-6.825868933105468,15.69878028564453,-6.303932971191406,22.553529411764707,-68.12179665789134,-250.13740458015263,0.0,2039.8231697384192,2000
2025-11-30T16:11:40.607000,-250.13740458015266,250.12977099236642,81.3206106870229,-9.217676391601563,10.723629235839843,-15.82567297363281,22.459411764705884,-34.121947082754616,-250.13740458015263,0.0,977.0063094318323,2000
2025-11-30T16:11:40.626590,-250.13740458015266,174.1679389312977,-74.58015267175573,-7.165845568847656,11.437101330566406,-19.6133,22.553529411764707,-30.24773904991823,-250.13740458015263,0.0,875.4844827936204,2000
2025-11-30T16:11:40.660047,250.12977099236642,-199.51908396946564,-34.213740458015266,-4.106055847167968,12.540828295898438,-16.666037756347656,22.60058823529412,-36.96065951460684,250.12977099236642,14414.87614003915,1073.406553726363,2000
2025-11-30T16:11:40.683264,250.12977099236642,-250.13740458015266,-57.725190839694655,-11.75313594970703,4.805162731933594,-18.49520782470703,22.459411764705884,-14.563794766708622,250.12977099236642,0.0,414.6026401893906,1914
2025-11-30T16:11:40.702159,250.12977099236642,-250.13740458015266,-144.98473282442748,-14.865598107910156,3.134009973144531,-19.6133,22.459411764705884,-9.078546938892359,250.12977099236642,0.0,-23.711184959228035,1476
2025-11-30T16:11:40.721505,250.12977099236642,-250.13740458015266,-250.13740458015266,-15.454571716308592,7.599196069335937,-13.493720556640625,22.459411764705884,-29.386704937227982,250.12977099236642,0.0,860.3670645736631,2000
2025-11-30T16:11:40.746043,250.12977099236642,-250.13740458015266,-250.13740458015266,-7.259219433593749,13.038822241210937,-7.082048510742187,22.459411764705884,-61.491361350971786,250.12977099236642,0.0,1796.6958189462443,2000
2025-11-30T16:11:40.779707,250.12977099236642,-122.30534351145039,-131.22137404580153,-0.2825157958984375,6.050147595214844,11.69567510986328,22.412352941176472,27.352428356980283,250.12977099236642,0.0,-813.0504190955104,1000
2025-11-30T16:11:40.802054,82.69465648854961,14.366412213740459,-18.64885496183206,-1.9728221679687499,0.8355763793945312,14.949395166015623,22.506470588235295,3.1991419898941933,82.69465648854961,-6604.041475491977,-424.31691521910835,1075
2025-11-30T16:11:40.826879,-250.13740458015266,212.14503816793894,77.14503816793894,-2.683900061035156,0.5003881469726562,14.671667773437498,22.412352941176472,1.9533580471344683,-250.13740458015263,-13404.119610441992,1283.5422616753729,2000
2025-11-30T16:11:40.850207,-250.13740458015266,250.12977099236642,158.5267175572519,-3.208230224609375,3.6487633300781246,10.802637890625,22.506470588235295,18.66321765307543,-250.13740458015263,0.0,-538.2846420527824,1000
2025-11-30T16:11:40.869336,-250.13740458015266,250.12977099236642,161.89312977099237,-7.343016491699219,7.433996154785156,5.377376928710937,22.60058823529412,54.1199246894586,-250.13740458015263,0.0,-1584.9777660339862,1000
2025-11-30T16:11:40.889570,-250.13740458015266,250.12977099236642,126.08396946564885,-4.024652990722656,13.136984509277344,-2.7269956909179687,22.459411764705884,-78.27299915449629,-250.13740458015263,0.0,2320.1762765292015,2000
2025-11-30T16:11:40.910147,-250.13740458015266,250.12977099236642,65.98473282442748,-5.523423229980469,11.71482872314453,-9.890447058105469,22.506470588235295,-49.82669066611706,-250.13740458015263,0.0,1433.0505330421693,2000
2025-11-30T16:11:40.929942,-250.13740458015266,121.1526717557252,-62.74045801526717,-10.330980163574218,7.812280017089844,-17.685967663574218,22.506470588235295,-23.832099609026656,-250.13740458015263,0.0,680.7604870591556,2000
2025-11-30T16:11:40.952152,-105.02290076335878,-99.65648854961832,-133.27480916030535,-3.450044592285156,13.050793249511718,-19.6133,22.459411764705884,-33.640003578945716,-105.02290076335878,6205.945836053609,978.9156509856937,2000
2025-11-30T16:11:40.973468,235.44274809160305,-150.54198473282443,-62.786259541984734,-7.213729602050781,7.970297326660156,-19.6133,22.459411764705884,-22.11545141799251,235.44274809160308,15952.460793535998,637.0282434747977,2000
2025-11-30T16:11:40.992604,250.12977099236642,-175.8320610687023,-100.99236641221374,-11.353304272460937,3.976768957519531,-19.6133,22.36529411764706,-11.46183899697621,250.12977099236642,790.0811720140481,327.8084841971368,1827
2025-11-30T16:11:41.012070,250.12977099236642,-211.73282442748092,-161.00763358778627,-18.45690059814453,2.9376854370117185,-19.6133,22.459411764705884,-8.518452837037758,250.12977099236642,0.0,-207.29461252415425,1292
2025-11-30T16:11:41.038205,250.12977099236642,-250.13740458015266,-250.13740458015266,-19.6133,19.61270144958496,-19.06263361816406,22.506470588235295,-45.814845954828684,250.12977099236642,0.0,1343.1548562014716,2000
2025-11-30T16:11:41.063265,250.12977099236642,-250.13740458015266,-250.13740458015266,0.5674257934570313,19.61270144958496,-0.6488286499023437,22.506470588235295,-88.10522836522266,250.12977099236642,0.0,2567.748057650809,2000
2025-11-30T16:11:41.082889,250.12977099236642,-138.8854961832061,-213.6030534351145,10.93671318359375,19.507955126953124,17.09699405517578,22.60058823529412,48.768306276285166,250.12977099236642,0.0,-1462.4735567594144,1000
2025-11-30T16:11:41.102390,208.61068702290078,54.19847328244275,-46.35114503816794,6.081272216796875,6.153098266601562,19.61270144958496,22.459411764705884,17.418220501826514,208.61068702290078,-2031.2562400208278,-492.8583632774447,1007
2025-11-30T16:11:41.121094,-223.6946564885496,138.41221374045801,55.93893129770992,-0.46208092041015625,-1.189918225097656,19.61270144958496,22.553529411764707,-3.471924783290289,-223.6946564885496,-23121.908078442364,1147.856274390422,2000
2025-11-30T16:11:41.141236,-250.13740458015266,195.85496183206106,85.72519083969466,-4.055777612304687,2.808398547363281,15.91665263671875,22.506470588235295,10.006504816771486,-250.13740458015263,-1314.3826701698604,-287.2413421909948,1212
2025-11-30T16:11:41.166599,-250.13740458015266,250.12977099236642,169.67175572519085,-1.467645617675781,8.82263311767578,18.89264530029297,22.412352941176472,25.03199641630112,-250.13740458015263,0.0,-731.35172304431,1000
2025-11-30T16:11:41.186427,-250.13740458015266,250.12977099236642,218.8854961832061,-5.164292980957031,17.293318591308594,4.886565588378906,22.553529411764707,74.22132267659725,-250.13740458015263,0.0,-2169.963268044253,1000
2025-11-30T16:11:41.209049,-250.13740458015266,250.12977099236642,106.67175572519083,-9.708487731933593,19.61270144958496,-5.482721801757812,22.506470588235295,-74.38168908121324,-250.13740458015263,0.0,2210.5642054667883,2000
2025-11-30T16:11:41.228327,-250.13740458015266,187.1145038167939,-18.083969465648856,-5.1331683593749995,19.61270144958496,-14.101847778320312,22.36529411764706,-54.28325749206965,-250.13740458015263,0.0,1566.2853009239661,2000
2025-11-30T16:11:41.247856,-250.13740458015266,15.099236641221374,-87.0,-5.190629199218749,19.61270144958496,-19.6133,22.60058823529412,-44.99912572244589,-250.13740458015263,0.0,1301.1287209852776,2000
2025-11-30T16:11:41.269013,72.45038167938931,-157.58778625954199,-40.969465648854964,-3.9791631591796874,16.084246752929687,-19.6133,22.553529411764707,-39.35409451361328,72.45038167938931,15083.287726963588,1139.1571760165784,2000
2025-11-30T16:11:41.290025,250.12977099236642,-158.33587786259542,-54.01526717557252,-11.908759057617187,9.083601098632812,-19.6133,22.506470588235295,-24.850494714749637,250.12977099236642,8476.357749237683,715.129086795913,2000
2025-11-30T16:11:41.311188,250.12977099236642,-187.793893129771,-127.51908396946565,-13.376404675292967,10.419565624999999,-19.6133,22.506470588235295,-27.979474388480146,250.12977099236642,0.0,812.5954434504346,2000
2025-11-30T16:11:41.333572,250.12977099236642,-158.3206106870229,-237.27480916030535,-17.26219396972656,17.673996655273438,-13.852850805664062,22.459411764705884,-51.910707344553465,250.12977099236642,0.0,1513.943976636054,2000
2025-11-30T16:11:41.352870,250.12977099236642,-220.6259541984733,-250.13740458015266,-4.797980126953124,19.61270144958496,-1.2904746948242187,22.506470588235295,-86.23548405683273,250.12977099236642,0.0,2515.467611932359,2000
2025-11-30T16:11:41.373577,250.12977099236642,-140.53435114503816,-182.04580152671755,1.2018892333984375,13.898340637207031,15.674838269042969,22.459411764705884,41.56230234399558,250.12977099236642,0.0,-1253.1595347206953,1000
2025-11-30T16:11:41.392467,250.12977099236642,-91.42748091603053,-128.22137404580153,-0.42377369384765623,6.263231542968749,17.221492541503906,22.553529411764707,19.985664740368062,250.12977099236642,0.0,-570.4388095905823,1000
2025-11-30T16:11:41.418705,193.70229007633588,-6.511450381679389,-44.32824427480916,0.10773907470703124,0.7709329345703124,19.61270144958496,22.60058823529412,2.251014470611237,193.70229007633588,-3079.6076733986165,-993.9242767889874,1000
2025-11-30T16:11:41.443479,-250.13740458015266,89.00763358778626,51.267175572519086,-0.9313444458007812,-0.05746083984375,19.61270144958496,22.506470588235295,-0.16786337155127312,-250.13740458015263,-15031.19610700521,1283.5464587622519,2000
2025-11-30T16:11:41.464756,-250.13740458015266,151.40458015267177,112.83206106870229,-5.221753820800781,5.293579870605469,14.15452021484375,22.459411764705884,20.50504860013219,-250.13740458015263,0.0,-594.8169541879995,1000
2025-11-30T16:11:41.483600,-250.13740458015266,209.51908396946564,99.79389312977099,-7.75721337890625,13.541604589843748,7.417236743164062,22.459411764705884,61.28885234438617,-250.13740458015263,0.0,-1795.1546925433972,1000
2025-11-30T16:11:41.503542,-250.13740458015266,215.58778625954199,109.27480916030534,-4.225765930175781,19.61270144958496,-2.042254016113281,22.553529411764707,-84.055263181651,-250.13740458015263,0.0,2494.343557225338,2000
2025-11-30T16:11:41.524311,-250.13740458015266,185.1679389312977,119.19847328244275,-3.2321722412109373,19.61270144958496,-9.667786303710937,22.64764705882353,-63.75970045520316,-250.13740458015263,0.0,1840.731017276577,2000
2025-11-30T16:11:41.556217,-250.13740458015266,15.526717557251908,-46.64885496183206,-8.204929089355469,15.078682055664062,-19.6133,22.459411764705884,-37.55304053013223,-250.13740458015263,0.0,1082.4399192891726,2000
2025-11-30T16:11:41.577399,9.465648854961833,-138.19847328244273,12.763358778625955,-2.0470424194335934,14.724340209960937,-19.6133,22.506470588235295,-36.896745601790556,9.465648854961833,11497.810217791937,1069.7730842153185,2000
2025-11-30T16:11:41.596490,250.12977099236642,-119.96946564885496,21.99236641221374,-15.67962667236328,4.134786267089844,-19.6133,22.506470588235295,-11.904519096815818,250.12977099236642,13028.621270020842,334.40719685927695,1834
2025-11-30T16:11:41.616642,250.12977099236642,-137.86259541984734,-103.83206106870229,-13.160926525878905,7.800309008789062,-19.6133,22.506470588235295,-21.68796698410963,250.12977099236642,0.0,632.7147062157294,2000
2025-11-30T16:11:41.637780,250.12977099236642,-125.19083969465649,-131.8320610687023,-19.029114794921874,11.291055029296874,-19.6133,22.553529411764707,-29.92832821104432,250.12977099236642,0.0,871.4527711112383,2000
2025-11-30T16:11:41.658537,250.12977099236642,-178.29770992366412,-250.13740458015266,-19.507955126953124,19.61270144958496,-19.6133,22.553529411764707,-44.99912572244589,250.12977099236642,0.0,1310.6606039918147,2000
2025-11-30T16:11:41.680438,250.12977099236642,-170.0,-250.13740458015266,1.0007762939453124,19.61270144958496,-7.580042456054687,22.60058823529412,-68.86916067733796,250.12977099236642,0.0,2005.226102296552,2000
2025-11-30T16:11:41.701765,250.12977099236642,-95.91603053435115,-250.13740458015266,7.584830859375,19.61270144958496,17.697938671875,22.506470588235295,47.93781252132539,250.12977099236642,0.0,-1433.9144014189803,1000
2025-11-30T16:11:41.720706,250.12977099236642,70.4885496183206,-74.89312977099236,8.487444885253906,14.563928698730468,19.61270144958496,22.506470588235295,36.59670702431811,250.12977099236642,0.0,-1056.3594150392148,1000
2025-11-30T16:11:41.740539,-50.48091603053435,88.95419847328245,93.33587786259542,-0.033518823242187495,-0.38786066894531246,19.61270144958496,22.506470588235295,-1.1329333223795575,-50.48091603053435,-14707.765430061718,259.0569485323576,1759
2025-11-30T16:11:41.761036,-250.13740458015266,109.56488549618321,58.57251908396947,-6.272808349609375,1.2713210815429687,19.61270144958496,22.553529411764707,3.708798982311387,-250.13740458015263,-10315.340944416474,1283.554659378359,2000
2025-11-30T16:11:41.781466,-250.13740458015266,224.08396946564886,61.37404580152672,-1.5945383056640625,13.800178369140625,15.172055920410155,22.459411764705884,42.288986236944545,-250.13740458015263,0.0,-1228.6504523903418,1000
2025-11-30T16:11:41.803826,-250.13740458015266,227.81679389312978,87.5114503816794,-5.331887097167969,19.61270144958496,6.148309863281249,22.412352941176472,72.59451555948299,-250.13740458015263,0.0,-2115.9866273480634,1000
2025-11-30T16:11:41.825643,-250.13740458015266,210.1908396946565,62.61832061068702,-6.713341455078124,19.61270144958496,-5.216965417480468,22.459411764705884,-75.10428593744838,-250.13740458015263,0.0,2229.1882890404618,2000
2025-11-30T16:11:41.845210,-250.13740458015266,174.34351145038167,-0.9083969465648855,-3.478775012207031,19.61270144958496,-12.923900561523437,22.553529411764707,-56.616889291786386,-250.13740458015263,0.0,1633.8196680380152,2000
2025-11-30T16:11:41.865943,-250.13740458015266,9.061068702290076,-49.01526717557252,-6.5409589355468745,19.46007109375,-19.6133,22.506470588235295,-44.7753118203755,-250.13740458015263,0.0,1294.1788223380097,2000
2025-11-30T16:11:41.887051,-111.37404580152672,-234.4351145038168,-99.13740458015268,-6.792350109863281,14.049175341796873,-19.6133,22.553529411764707,-35.6143506088287,-111.37404580152672,7191.860698884499,1029.0177956661219,2000
2025-11-30T16:11:41.906010,250.12977099236642,-181.77862595419847,-81.61832061068702,-15.447389111328125,11.456254943847656,-19.6133,22.60058823529412,-30.28947594804478,250.12977099236642,17412.828930646363,876.3429042341281,2000
2025-11-30T16:11:41.929821,250.12977099236642,-75.45801526717557,-188.12213740458014,-14.822502478027342,19.61270144958496,-19.6133,22.60058823529412,-44.99912572244589,250.12977099236642,0.0,1310.1745947820284,2000
2025-11-30T16:11:41.951209,250.12977099236642,24.236641221374047,-132.0229007633588,-11.908759057617187,19.61270144958496,-8.221688500976562,22.506470588235295,-67.2564594029765,250.12977099236642,0.0,1958.3292851248666,2000
2025-11-30T16:11:41.970211,250.12977099236642,-20.48854961832061,-157.96946564885496,-0.0526724365234375,19.61270144958496,8.564059338378906,22.553529411764707,66.41108719814886,250.12977099236642,0.0,-1983.9432697721031,1000
2025-11-30T16:11:41.990812,250.12977099236642,-74.22137404580153,-64.9618320610687,-2.916137622070312,11.987767712402343,13.7522943359375,22.553529411764707,41.0784086132764,250.12977099236642,0.0,-1181.7221637800494,1000
2025-11-30T16:11:42.015319,250.12977099236642,-26.099236641221374,-54.74809160305343,-4.6351744140625,3.0980969482421874,19.61270144958496,22.553529411764707,8.976487631436617,250.12977099236642,0.0,-460.39912812964883,1039
2025-11-30T16:11:42.040128,-62.786259541984734,6.3893129770992365,-13.01526717557252,-0.7206546997070312,3.749319799804687,19.61270144958496,22.506470588235295,10.8225398781525,-62.78625954198474,-14064.585858250384,-314.5174501436826,1185
2025-11-30T16:11:42.058627,-250.13740458015266,18.083969465648856,85.25954198473282,-3.411737365722656,5.9400143188476555,19.61270144958496,22.459411764705884,16.84975987905321,-250.13740458015263,-7911.718018547429,-490.67924139849805,1009
2025-11-30T16:11:42.080164,-250.13740458015266,40.396946564885496,95.2824427480916,-8.13310303955078,10.256759912109374,12.761094848632812,22.459411764705884,38.79066213409054,-250.13740458015263,0.0,-1133.1201934523076,1000
2025-11-30T16:11:42.099268,-250.13740458015266,40.10687022900763,123.19083969465649,-8.583212951660157,19.61270144958496,3.450044592285156,22.506470588235295,80.02324535828735,-250.13740458015263,0.0,-2338.3668429534505,1000
2025-11-30T16:11:42.120173,-250.13740458015266,89.37404580152672,141.59541984732823,-6.414066247558593,19.61270144958496,-6.619967590332031,22.459411764705884,-71.34867564606982,-250.13740458015263,0.0,2131.2538685271193,2000
2025-11-30T16:11:42.141321,-250.13740458015266,93.67175572519083,145.51908396946564,-5.710170959472656,19.61270144958496,-13.63019005126953,22.553529411764707,-55.201955212667585,-250.13740458015263,0.0,1594.8049622192705,2000
2025-11-30T16:11:42.161024,-250.13740458015266,-1.1221374045801527,36.64885496183206,-11.578359228515625,15.665261462402343,-19.6133,22.412352941176472,-38.614573854946904,-250.13740458015263,0.0,1113.2629868791335,2000
2025-11-30T16:11:42.183083,-100.87022900763358,-106.8854961832061,-41.93893129770992,-5.729324572753906,11.846509814453125,-19.6133,22.553529411764707,-31.132140174610008,-100.87022900763358,6381.781510988644,900.272828219543,2000
2025-11-30T16:11:42.204771,250.12977099236642,-81.47328244274809,-55.93893129770992,-12.227187878417968,8.360552197265624,-19.6133,22.506470588235295,-23.087074244912486,250.12977099236642,16311.569486455046,666.5342094686075,2000
2025-11-30T16:11:42.224052,250.12977099236642,-43.274809160305345,-129.48091603053436,-12.974178796386719,13.072341064453123,-19.6133,22.459411764705884,-33.68361093602367,250.12977099236642,0.0,981.2245138338006,2000
2025-11-30T16:11:42.244695,250.12977099236642,-28.267175572519083,-124.13740458015268,-11.980585107421874,17.72906329345703,-19.6133,22.553529411764707,-42.11139525833854,250.12977099236642,0.0,1224.7522567799454,2000
2025-11-30T16:11:42.264583,250.12977099236642,-12.938931297709924,-178.75572519083968,-13.371616271972655,19.61270144958496,-8.06367119140625,22.553529411764707,-67.65021307810927,250.12977099236642,0.0,1971.3360293237322,2000
2025-11-30T16:11:42.283262,250.12977099236642,-39.42748091603053,-223.5114503816794,-3.890577697753906,19.61270144958496,3.9360675292968748,22.506470588235295,78.65207454350781,250.12977099236642,0.0,-2343.5788645146054,1000
2025-11-30T16:11:42.302806,250.12977099236642,-45.06106870229008,-145.45801526717557,2.300827795410156,16.2422640625,11.197681164550781,22.553529411764707,55.41698835094167,250.12977099236642,0.0,-1596.9959202725129,1000
2025-11-30T16:11:42.324013,250.12977099236642,-21.946564885496183,-52.64885496183206,-2.1404162841796874,3.9408559326171875,17.84398497314453,22.506470588235295,12.45389960029842,250.12977099236642,0.0,-345.6703206494556,1154
2025-11-30T16:11:42.342314,250.12977099236642,-44.343511450381676,-10.580152671755725,0.00718260498046875,2.152387292480469,19.61270144958496,22.553529411764707,6.2628374327810326,250.12977099236642,0.0,-1004.4952992883075,1000
2025-11-30T16:11:42.363480,-30.51145038167939,-55.725190839694655,90.78625954198473,-0.6967126831054687,-0.22026655273437498,19.61270144958496,22.506470588235295,-0.6434510465630952,-30.511450381679392,-13296.897986693391,156.58187636865136,1656
2025-11-30T16:11:42.382986,-250.13740458015266,17.03053435114504,161.93893129770993,-5.896918688964844,-1.3910311645507811,17.846379174804685,22.459411764705884,-4.456892733530569,-250.13740458015263,-11554.878430025252,1283.5481457194549,2000
2025-11-30T16:11:42.403009,-250.13740458015266,82.03053435114504,173.4885496183206,-7.024587670898437,5.011064074707031,12.361263171386717,22.506470588235295,22.066869183236793,-250.13740458015263,0.0,-646.4114316256607,1000
2025-11-30T16:11:42.424007,-250.13740458015266,92.68702290076335,213.9770992366412,-5.513846423339843,14.872780712890624,-0.8762778076171874,22.553529411764707,-86.62813254414375,-250.13740458015263,0.0,2552.9193731337837,2000
2025-11-30T16:11:42.447953,-250.13740458015266,214.93129770992365,250.12977099236642,-7.702146740722656,18.957288745117186,-10.800243688964843,22.506470588235295,-60.32920467039395,-250.13740458015263,0.0,1740.9745921864276,2000
2025-11-30T16:11:42.467250,-250.13740458015266,250.12977099236642,235.29770992366412,-5.53539423828125,16.024391711425782,-18.435352783203125,22.459411764705884,-40.99784737717651,-250.13740458015263,0.0,1180.941657690409,2000
2025-11-30T16:11:42.486764,-250.13740458015266,164.17557251908397,132.09923664122138,-10.146626635742187,8.738836059570312,-19.6133,22.506470588235295,-24.015679951056153,-250.13740458015263,0.0,689.2651985055272,2000
2025-11-30T16:11:42.509598,-74.48091603053435,-67.06870229007633,-21.022900763358777,-6.763619689941406,11.085153686523437,-19.6133,22.506470588235295,-29.474506193993307,-74.48091603053435,7488.278169589972,856.6223681850656,2000
2025-11-30T16:11:42.533149,250.12977099236642,-149.82442748091603,-8.076335877862595,-8.95670841064453,9.612719665527344,-19.6133,22.60058823529412,-26.11004254153572,250.12977099236642,17696.96370992267,755.7238564790487,2000
2025-11-30T16:11:42.555537,250.12977099236642,-88.54961832061069,-92.07633587786259,-13.982137695312499,6.040570788574218,-17.36514464111328,22.506470588235295,-19.1805399739479,250.12977099236642,0.0,554.1485399706868,2000
2025-11-30T16:11:42.576456,250.12977099236642,-108.87786259541984,-133.1679389312977,-11.142614526367186,8.032546569824218,-12.186486450195313,22.506470588235295,-33.390297074562724,250.12977099236642,0.0,973.4744395569761,2000
2025-11-30T16:11:42.597780,250.12977099236642,-176.86259541984734,-176.67175572519085,-13.287819213867186,8.090007409667969,-9.686939916992188,22.412352941176472,-39.86680383712895,250.12977099236642,0.0,1158.5652547192133,2000
2025-11-30T16:11:42.617018,250.12977099236642,-146.70229007633588,-237.9083969465649,-9.756371765136718,10.790666882324219,-2.710236279296875,22.553529411764707,-75.90095846902689,250.12977099236642,0.0,2216.579229319429,2000
2025-11-30T16:11:42.636970,250.12977099236642,-128.86259541984734,-192.59541984732823,-2.6767174560546874,11.245565197753905,7.888894470214844,22.506470588235295,54.94989457331534,250.12977099236642,0.0,-1644.5870836413533,1000
2025-11-30T16:11:42.660653,250.12977099236642,-81.51908396946565,-32.030534351145036,3.5482068603515624,3.957615344238281,19.61270144958496,22.506470588235295,11.408424362182226,250.12977099236642,0.0,-313.8477232324288,1186
2025-11-30T16:11:42.681033,-13.099236641221374,-45.732824427480914,110.56488549618321,5.298368273925781,-1.5825672973632812,19.61270144958496,22.412352941176472,-4.613255233784257,-13.099236641221374,-11874.193155878553,67.24218504644688,1567
2025-11-30T16:11:42.713919,-250.13740458015266,-54.97709923664122,209.16030534351145,-6.60799658203125,-1.5203180541992187,9.670180505371093,22.553529411764707,-8.934743186616355,-250.13740458015263,-11745.64517619388,483.71380179002637,1983
2025-11-30T16:11:42.733407,-250.13740458015266,-190.93129770992365,220.38167938931298,-19.033903198242186,-13.974955090332031,3.181894006347656,22.506470588235295,-77.17324986361605,-250.13740458015263,0.0,2254.2759625050467,2000
2025-11-30T16:11:42.753678,-250.13740458015266,-250.13740458015266,224.42748091603053,-6.679822631835937,10.067617980957031,-1.6160861206054686,22.64764705882353,-80.88049731891881,-250.13740458015263,0.0,2346.994092783445,2000
2025-11-30T16:11:42.779450,-250.13740458015266,210.35114503816794,250.12977099236642,-8.834604125976561,9.047688073730468,2.3127988037109373,22.553529411764707,75.66092753634575,-250.13740458015263,0.0,-2263.023521115627,1000
2025-11-30T16:11:42.804386,-250.13740458015266,250.12977099236642,250.12977099236642,-6.718129858398437,14.276624499511717,-7.726088757324218,22.459411764705884,-61.579053079952686,-250.13740458015263,0.0,1824.1839356393216,2000
2025-11-30T16:11:42.827766,-250.13740458015266,250.12977099236642,250.12977099236642,-14.219163659667968,18.543091857910156,-18.84715546875,22.412352941176472,-44.53407161428311,-250.13740458015263,0.0,1286.447139449449,2000
2025-11-30T16:11:42.847762,-38.274809160305345,-248.29007633587787,23.770992366412212,-17.559074975585936,10.752359655761719,-19.6133,22.459411764705884,-28.732336236392253,-38.274809160305345,10465.018682885391,826.9934978526616,2000
2025-11-30T16:11:42.867001,250.12977099236642,250.12977099236642,-227.1145038167939,-12.840103503417968,16.122553979492185,-8.980650427246093,22.506470588235295,-60.88114113801772,250.12977099236642,15470.731348672105,1779.349421023397,2000
2025-11-30T16:11:42.887593,250.12977099236642,12.84732824427481,-250.13740458015266,-4.575319372558593,4.821922143554687,-9.469067565917967,22.459411764705884,-26.98650587959845,250.12977099236642,0.0,769.8193575444247,2000
2025-11-30T16:11:42.907439,250.12977099236642,12.534351145038167,-142.793893129771,-4.168305090332031,6.133944653320312,-3.584119885253906,22.553529411764707,-59.701865893454865,250.12977099236642,0.0,1745.329582251797,2000
2025-11-30T16:11:42.926755,120.92366412213741,-250.13740458015266,-250.13740458015266,-13.290213415527344,-19.6133,0.9241618408203125,22.459411764705884,-87.30226744123098,120.92366412213741,-6337.617715708443,2542.5962527774263,2000
2025-11-30T16:11:42.950096,71.6030534351145,49.99236641221374,-130.32824427480915,0.354341845703125,14.786589453125,12.04762275390625,22.459411764705884,50.82799406171935,71.6030534351145,-2504.547855671254,-1530.12692375992,1000
2025-11-30T16:11:42.972076,-250.13740458015266,250.12977099236642,167.54961832061068,-11.362881079101562,12.176909643554687,-3.763685009765625,22.553529411764707,-72.82447031169107,-250.13740458015263,-12799.503850968083,2151.262854452293,2000
2025-11-30T16:11:42.991219,187.6946564885496,-250.13740458015266,-250.13740458015266,-12.564770312499999,17.712303881835936,0.031124621582031248,22.506470588235295,89.89931814449696,187.6946564885496,22984.314564428423,-2675.418661376969,1000
2025-11-30T16:11:43.011943,-250.13740458015266,250.12977099236642,250.12977099236642,-1.9536685546875,5.623979699707031,-11.959037292480469,22.553529411764707,-25.186206754504347,-250.13740458015263,-20556.111366847654,773.625900548485,2000
2025-11-30T16:11:43.032713,-250.13740458015266,228.04580152671755,250.12977099236642,-3.418919970703125,0.8164227661132812,-11.863269226074218,22.506470588235295,-3.936852412977599,-250.13740458015263,0.0,1283.562145507658,2000
2025-11-30T16:11:43.065839,-191.82442748091603,78.66412213740458,172.0763358778626,-8.367734802246094,1.2425906616210938,-16.608576916503907,22.553529411764707,-4.278681295638368,-191.82442748091603,1840.1272465259003,984.3511197559627,2000
2025-11-30T16:11:43.086708,-0.3053435114503817,-64.41221374045801,19.96946564885496,-9.804255798339844,6.198588098144531,-14.64533155517578,22.553529411764707,-22.94035010581981,-0.30534351145038174,7892.640380139576,664.5297260155106,2000
2025-11-30T16:11:43.106759,137.54198473282443,-79.55725190839695,-58.11450381679389,-8.98304462890625,6.619967590332031,-11.348515869140625,22.506470588235295,-30.256437163529263,137.54198473282443,7059.420522878534,880.4340421906946,2000
2025-11-30T16:11:43.127592,207.98473282442748,-197.0763358778626,-115.56488549618321,-4.920084411621094,2.300827795410156,-8.856151940917968,22.506470588235295,-14.56347920651628,207.98473282442748,3320.2411598503495,416.4235350074754,1916
2025-11-30T16:11:43.147994,217.41221374045801,-142.51908396946564,-71.41984732824427,-4.862623571777344,3.6272155151367187,-5.968744738769531,22.412352941176472,-31.28711552297489,217.41221374045801,492.4310503995141,914.3146329291125,2000
2025-11-30T16:11:43.167162,173.53435114503816,-145.31297709923663,-51.396946564885496,-3.5003228271484375,2.29843359375,-4.031835595703125,22.553529411764707,-29.68622170186216,173.53435114503816,-2129.1471776602607,860.2789699921582,2000
2025-11-30T16:11:43.190459,93.38167938931298,18.580152671755727,-7.931297709923665,-2.6431986328124997,2.655169641113281,-3.438073583984375,22.506470588235295,-37.6783391703746,93.38167938931298,-3463.71456285069,1095.4348044665355,2000
2025-11-30T16:11:43.212302,0.6564885496183206,-37.717557251908396,121.68702290076335,-4.680664245605469,2.6815058593749996,-5.355829113769531,22.60058823529412,-26.595778263610107,0.6564885496183206,-4216.0921757007845,767.2462941819967,2000
2025-11-30T16:11:43.231961,24.251908396946565,-136.1908396946565,240.25190839694656,-6.062118603515625,2.3870190551757813,-4.65432802734375,22.506470588235295,-27.151476753325205,24.251908396946565,1278.0902696179696,787.6336294726065,2000
2025-11-30T16:11:43.251953,-44.083969465648856,73.94656488549619,81.58778625954199,-12.495338464355468,2.463633508300781,-4.881777185058594,22.553529411764707,-26.778212482769906,-44.083969465648856,-3228.118864528212,776.4271009388851,2000
2025-11-30T16:11:43.272986,-24.770992366412212,85.25190839694656,53.35114503816794,-5.686228942871093,3.4907460205078125,-6.8785413696289055,22.459411764705884,-26.90704024713596,-24.770992366412212,1010.8882481310418,780.3581124379848,2000
2025-11-30T16:11:43.292062,-23.045801526717558,-165.4732824427481,161.4351145038168,-10.053252770996092,4.821922143554687,-7.802703210449218,22.506470588235295,-31.715276461149823,-23.045801526717558,82.02472130875739,921.5718897571605,2000
2025-11-30T16:11:43.313743,23.114503816793892,-25.458015267175572,76.77099236641222,-13.816937780761718,4.395754248046875,-5.216965417480468,22.553529411764707,-40.11709805385965,23.114503816793892,2126.324525485003,1166.4920101368052,2000
2025-11-30T16:11:43.335033,16.83969465648855,-18.938931297709924,-40.14503816793893,-11.183315954589844,4.094084838867187,-5.899312890625,22.553529411764707,-34.760396894154674,16.83969465648855,-295.27506574861263,1006.0349382748776,2000
2025-11-30T16:11:43.353970,12.145038167938932,-4.6106870229007635,-104.44274809160305,-8.882488159179687,3.303998291015625,-5.42047255859375,22.553529411764707,-31.364005143400558,12.145038167938932,-255.31373487564986,908.0784768899833,2000
2025-11-30T16:11:43.373239,4.137404580152672,38.82442748091603,-107.74045801526718,-6.430825659179687,3.4811692138671875,-5.389347937011719,22.506470588235295,-32.859837972778315,4.137404580152672,-403.51354103185275,953.5383146178725,2000
2025-11-30T16:11:43.394175,-12.969465648854962,34.6412213740458,-75.0381679389313,-5.166687182617188,3.0310593017578125,-5.506663818359375,22.553529411764707,-28.82991591945265,-12.969465648854962,-852.2254133836262,834.4614691682707,2000
2025-11-30T16:11:43.419181,-28.916030534351144,11.725190839694656,-32.030534351145036,-4.733336682128906,2.9472622436523435,-5.973533142089844,22.506470588235295,-26.26112206767852,-28.916030534351147,-802.456399346085,760.5384137644602,2000
2025-11-30T16:11:43.442491,-35.587786259541986,27.267175572519083,33.11450381679389,-5.80354482421875,3.1076737548828124,-6.500257507324219,22.506470588235295,-25.55175050907176,-35.587786259541986,-269.1666431825827,740.7718125423294,2000
2025-11-30T16:11:43.463549,-26.870229007633586,22.328244274809162,45.94656488549618,-7.419630944824219,3.6008792968749996,-6.382941625976562,22.459411764705884,-29.429128515941535,-26.870229007633586,340.48576425586117,854.6562516826626,2000
2025-11-30T16:11:43.484161,-20.85496183206107,13.427480916030534,29.72519083969466,-8.003816149902343,3.670311145019531,-6.864176159667968,22.553529411764707,-28.13365051230968,-20.854961832061072,291.5196447620052,815.3735998351384,2000
2025-11-30T16:11:43.502919,-13.786259541984732,-0.061068702290076333,4.290076335877862,-8.137891442871092,3.77326181640625,-6.744466076660156,22.412352941176472,-29.22528581281997,-13.786259541984734,378.14762371915134,848.0004739508385,2000
2025-11-30T16:11:43.521205,-2.6946564885496183,1.4961832061068703,-10.076335877862595,-7.513004809570312,3.758896606445312,-6.866570361328125,22.60058823529412,-28.69716967421146,-2.6946564885496183,606.3968697494084,831.9869364667672,2000
2025-11-30T16:11:43.542848,7.351145038167939,-9.610687022900763,-16.0,-6.612784985351562,3.5242648437499997,-6.622361791992187,22.506470588235295,-28.02085556364186,7.351145038167939,468.9916244820635,812.3522197310712,2000
2025-11-30T16:11:43.562475,10.946564885496183,-9.946564885496183,-9.763358778625955,-6.5577183471679685,3.402160559082031,-6.186617089843749,22.412352941176472,-28.807388903975237,10.946564885496183,192.3481058574284,835.7509024864513,2000
2025-11-30T16:11:43.583001,7.145038167938932,-6.916030534351145,1.5419847328244274,-6.766013891601562,3.404554760742187,-5.944802722167968,22.459411764705884,-29.799522016832874,7.145038167938932,-175.0613049654401,864.5516424140031,2000
2025-11-30T16:11:43.601973,1.8091603053435115,-2.7938931297709924,4.625954198473282,-7.022193469238281,3.3782185424804685,-5.772420202636718,22.506470588235295,-30.337636518408377,1.8091603053435112,-290.1820922216586,880.0255741255943,2000
2025-11-30T16:11:43.621161,-8.083969465648854,5.183206106870229,4.099236641221374,-7.089231115722656,3.3327287109375,-5.80354482421875,22.459411764705884,-29.86691685151299,-8.083969465648854,-499.19149428555363,865.9505746058406,2000
2025-11-30T16:11:43.642051,-12.900763358778626,6.511450381679389,1.984732824427481,-7.105990527343749,3.459621398925781,-6.205770703124999,22.459411764705884,-29.138992153072664,-12.900763358778626,-255.3475466775755,844.7220628865929,2000
2025-11-30T16:11:43.665586,-10.977099236641221,6.183206106870229,1.2213740458015268,-6.904877587890625,3.497928625488281,-6.296750366210937,22.60058823529412,-29.052754356397784,-10.977099236641221,92.52152514892794,842.4966944411207,2000
2025-11-30T16:11:43.689232,-5.221374045801527,2.6259541984732824,0.6641221374045801,-6.979097839355468,3.373430139160156,-6.385335827636719,22.459411764705884,-27.84789515596529,-5.221374045801527,229.95619430797367,807.2038614479854,2000
2025-11-30T16:11:43.710178,-1.1221374045801527,-0.8473282442748091,-0.2366412213740458,-7.0078282592773435,3.5122938354492184,-6.169857678222656,22.553529411764707,-29.651413550306316,-1.1221374045801527,168.56814064356183,860.4843048731911,2000
2025-11-30T16:11:43.729147,-0.40458015267175573,-1.4198473282442747,-0.7404580152671756,-7.024587670898437,3.5290532470703124,-6.208164904785156,22.506470588235295,-29.61621797540384,-0.40458015267175573,39.072197797014034,858.854989621281,2000
2025-11-30T16:11:43.748350,-1.450381679389313,-0.9389312977099237,-0.8702290076335878,-6.981492041015625,3.4428619873046875,-6.119579443359375,22.553529411764707,-29.362010445306794,-1.450381679389313,-52.71176502694895,851.3957998882103,2000
2025-11-30T16:11:43.769360,-3.183206106870229,0.1297709923664122,-0.16793893129770993,-6.909665991210937,3.517082238769531,-6.1459156616210935,22.506470588235295,-29.78092392975124,-3.183206106870229,-86.36435657395182,863.8138238959768,2000
2025-11-30T16:11:43.791002,-4.259541984732825,0.7709923664122137,0.6259541984732825,-6.9336080078124995,3.4811692138671875,-5.987898352050781,22.506470588235295,-30.172325479954537,-4.259541984732825,-54.168775007050534,875.1550235013119,2000
2025-11-30T16:11:43.818418,-4.442748091603053,1.0,1.0381679389312977,-7.0844427124023435,3.5625720703124997,-6.210559106445312,22.553529411764707,-29.839938496352435,-4.442748091603053,-6.497020510769381,865.2639171337049,2000
2025-11-30T16:11:43.844327,-3.480916030534351,0.8549618320610687,0.5725190839694656,-7.067683300781249,3.497928625488281,-6.198588098144531,22.553529411764707,-29.436495425372343,-3.480916030534351,41.493608239328374,853.5191304821999,2000
2025-11-30T16:11:43.863599,-3.7099236641221376,1.0229007633587786,0.3282442748091603,-7.005434057617187,3.517082238769531,-6.203376501464843,22.459411764705884,-29.55161346124423,-3.7099236641221376,-9.59433878965766,857.0353735942803,2000
2025-11-30T16:11:43.882669,-3.7709923664122136,0.8549618320610687,0.22900763358778625,-6.993463049316406,3.5889082885742187,-6.2201359130859375,22.506470588235295,-29.984184914570367,-3.7709923664122136,-3.2422463296676565,869.7250904426401,2000
2025-11-30T16:11:43.903521,-3.6030534351145036,1.0534351145038168,0.2748091603053435,-7.034164477539062,3.5218706420898434,-6.208164904785156,22.60058823529412,-29.566093299603132,-3.603053435114504,8.637379447188987,857.2446804936534,2000
2025-11-30T16:11:43.923367,-3.6106870229007635,1.0763358778625953,0.5038167938931297,-7.003039855957031,3.517082238769531,-6.253654736328125,22.506470588235295,-29.353587561702284,-3.6106870229007635,-0.3768548468250812,851.1701114488295,2000
2025-11-30T16:11:43.947817,-3.66412213740458,1.0916030534351144,0.183206106870229,-7.072471704101562,3.5482068603515624,-6.193799694824218,22.459411764705884,-29.80685615596627,-3.6641221374045796,-2.491751878947542,864.5679207586295,2000
2025-11-30T16:11:43.973130,-4.099236641221374,1.381679389312977,0.366412213740458,-7.031770275878906,3.5577836669921874,-6.040570788574218,22.459411764705884,-30.49729267719179,-4.099236641221374,-17.56634296978398,884.6444807978213,2000
2025-11-30T16:11:43.994137,-4.358778625954199,1.7786259541984732,0.648854961832061,-7.055712292480468,3.5865140869140624,-6.136338854980468,22.60058823529412,-30.305061182770235,-4.358778625954199,-10.37886834022484,878.7852768782993,2000
2025-11-30T16:11:44.013789,-4.526717557251908,1.8702290076335877,0.4122137404580153,-6.902483386230468,3.5721488769531247,-6.112396838378906,22.553529411764707,-30.302463461416902,-4.526717557251908,-8.27084989488298,878.7704168965073,2000
2025-11-30T16:11:44.038508,-4.625954198473282,0.0,-0.061068702290076333,-6.976703637695312,3.5242648437499997,-6.246472131347656,22.60058823529412,-29.43172790424516,-4.625954198473282,-4.697044983596182,853.1904016448995,2000
2025-11-30T16:11:44.058244,-4.0534351145038165,1.3587786259541985,0.48854961832061067,-6.959944226074218,3.574543078613281,-6.246472131347656,22.553529411764707,-29.780343916416136,-4.0534351145038165,25.845369051775005,863.7558748393684,2000
2025-11-30T16:11:44.079970,-4.190839694656488,1.3358778625954197,0.33587786259541985,-7.003039855957031,3.6008792968749996,-6.277596752929687,22.506470588235295,-29.83892434669226,-4.190839694656489,-5.979318152748597,865.3491996118306,2000
2025-11-30T16:11:44.101615,-4.152671755725191,1.6030534351145038,0.24427480916030533,-7.000645654296875,3.651157531738281,-6.133944653320312,22.60058823529412,-30.762719534238915,-4.152671755725191,1.7619769410314872,892.4600336325266,2000
2025-11-30T16:11:44.121246,-3.9770992366412212,1.1221374045801527,0.3816793893129771,-7.029376074218749,3.6056677001953124,-6.275202551269531,22.506470588235295,-29.88123798882457,-3.9770992366412212,9.230440199097158,866.1851619845756,2000
2025-11-30T16:11:44.140804,-5.854961832061068,1.6030534351145038,0.32061068702290074,-6.981492041015625,3.622427111816406,-6.105214233398437,22.506470588235295,-30.68206863687206,-5.854961832061068,-92.73139615738543,890.0963592782119,2000
2025-11-30T16:11:44.164187,-4.320610687022901,1.381679389312977,0.366412213740458,-6.969521032714844,3.555389465332031,-6.1818286865234375,22.60058823529412,-29.90473834976826,-4.320610687022901,73.99037854443843,866.9375331364023,2000
2025-11-30T16:11:44.184556,-4.038167938931298,1.0763358778625953,0.2366412213740458,-6.976703637695312,3.6176387084960937,-6.143521459960938,22.60058823529412,-30.491884665047877,-4.038167938931298,12.80482022668082,884.4776061393231,2000
2025-11-30T16:11:44.206226,-3.2595419847328246,1.083969465648855,0.4961832061068702,-6.959944226074218,3.670311145019531,-6.167463476562499,22.553529411764707,-30.75724480495329,-3.2595419847328246,34.49551566126005,892.0541494822273,2000
2025-11-30T16:11:44.236648,-3.6030534351145036,1.0687022900763359,-0.007633587786259542,-7.017405065917968,3.5913024902343746,-6.229712719726562,22.506470588235295,-29.962572977399947,-3.603053435114504,-15.946072673945581,868.6195019965901,2000
2025-11-30T16:11:44.259361,-3.8396946564885495,1.2061068702290076,0.5114503816793893,-6.938396411132812,3.6391865234374996,-6.1626750732421876,22.553529411764707,-30.56272549642947,-3.83969465648855,-7.485879080270957,886.4709205999436,2000
2025-11-30T16:11:44.280227,-3.6412213740458017,1.5190839694656488,0.2900763358778626,-6.9910688476562495,3.6008792968749996,-6.229712719726562,22.459411764705884,-30.028638512344614,-3.6412213740458017,10.34918361503721,870.6077215599398,2000
2025-11-30T16:11:44.302335,-3.6259541984732824,1.1984732824427482,0.16793893129770993,-6.9144543945312495,3.5673604736328124,-6.196193896484375,22.459411764705884,-29.930504123260885,-3.625954198473282,0.6443726410050831,867.9514843740608,2000
2025-11-30T16:11:44.321244,-1.9694656488549618,1.366412213740458,0.4961832061068702,-6.938396411132812,3.584119885253906,-6.179434484863281,22.506470588235295,-30.114065371687822,-1.9694656488549618,87.30606370467856,873.3852932836991,2000
2025-11-30T16:11:44.342695,-3.7022900763358777,1.6488549618320612,0.3816793893129771,-7.012616662597656,3.5913024902343746,-6.291961962890625,22.506470588235295,-29.716698426852613,-3.7022900763358777,-80.80485215944094,861.6360146530099,2000
2025-11-30T16:11:44.362149,-3.6564885496183206,1.3129770992366412,0.3435114503816794,-7.003039855957031,3.622427111816406,-6.131550451660156,22.553529411764707,-30.573950393354977,-3.6564885496183206,2.435970768146341,887.0093074550343,2000
2025-11-30T16:11:44.381456,-3.717557251908397,1.549618320610687,0.12213740458015267,-6.967126831054687,3.6559459350585937,-6.2392895263671875,22.553529411764707,-30.36840417907696,-3.717557251908397,-3.049185175411329,880.6016171437354,2000
2025-11-30T16:11:44.410816,-2.0381679389312977,1.465648854961832,0.33587786259541985,-6.921636999511718,3.699041564941406,-6.198588098144531,22.459411764705884,-30.826872677625936,-2.0381679389312977,57.20676774934703,894.1042459282471,2000
2025-11-30T16:11:44.431677,-3.6106870229007635,1.2213740458015268,0.31297709923664124,-6.938396411132812,3.641580725097656,-6.2201359130859375,22.553529411764707,-30.346854357627844,-3.6106870229007635,-75.45702483691,879.874507679458,2000
2025-11-30T16:11:44.452642,-3.450381679389313,1.251908396946565,0.3435114503816794,-7.019799267578125,3.6272155151367187,-6.227318518066406,22.506470588235295,-30.219442978583455,-3.450381679389313,7.7264294490065755,876.3147183830781,2000
2025-11-30T16:11:44.471978,-3.6564885496183206,1.381679389312977,0.2748091603053435,-6.768408093261718,3.67749375,-6.136338854980468,22.60058823529412,-30.934159908658927,-3.6564885496183206,-10.85355585417277,897.3917324135637,2000
2025-11-30T16:11:44.493617,-3.549618320610687,1.1526717557251909,0.06870229007633588,-6.928819604492187,3.6727053466796873,-6.143521459960938,22.506470588235295,-30.87172575839982,-3.549618320610687,4.816071567561301,895.2575383987354,2000
2025-11-30T16:11:44.514888,-3.2977099236641223,1.2748091603053435,0.31297709923664124,-6.947973217773437,3.69664736328125,-6.1842228881835934,22.506470588235295,-30.86906364479629,-3.2977099236641223,13.056291590318983,895.2017418905057,2000
2025-11-30T16:11:44.545487,-3.5801526717557253,1.297709923664122,0.366412213740458,-6.955155822753905,3.67749375,-6.222530114746093,22.506470588235295,-30.582940336533348,-3.5801526717557253,-8.682067513570024,886.8349081192032,2000
2025-11-30T16:11:44.567147,-3.5572519083969465,1.1297709923664123,0.12213740458015267,-6.940790612792968,3.6942531616210936,-6.203376501464843,22.459411764705884,-30.77476977365164,-3.5572519083969465,1.06720549485334,892.5398394552232,2000
2025-11-30T16:11:44.585683,-3.2900763358778624,1.3053435114503817,0.21374045801526717,-6.988674645996094,3.6942531616210936,-6.160280871582031,22.60058823529412,-30.950655862469187,-3.2900763358778624,14.186803044930791,897.6437352642583,2000
2025-11-30T16:11:44.608246,-3.5267175572519083,1.4122137404580153,0.37404580152671757,-7.182604980468749,3.7325603881835936,-6.191405493164062,22.60058823529412,-31.084159821754263,-3.5267175572519083,-11.875959861372234,901.4942345427952,2000
2025-11-30T16:11:44.629884,-3.6106870229007635,1.1068702290076335,0.2900763358778626,-7.024587670898437,3.706224169921875,-6.150704064941406,22.459411764705884,-31.071867829459663,-3.6106870229007635,-3.86583976168834,901.0796398017443,2000
2025-11-30T16:11:44.650059,-3.5801526717557253,1.916030534351145,0.2748091603053435,-6.967126831054687,3.7014357666015623,-6.236895324707031,22.553529411764707,-30.688033061303557,-3.5801526717557253,1.3659089092066858,889.8155965454773,2000
2025-11-30T16:11:44.688424,-2.687022900763359,0.732824427480916,0.46564885496183206,-6.979097839355468,3.758896606445312,-6.057330200195312,22.506470588235295,-31.821808892984418,-2.687022900763359,23.300291535222744,923.0690847185107,2000
2025-11-30T16:11:44.711801,-3.435114503816794,1.83206106870229,0.4198473282442748,-6.947973217773437,3.727771984863281,-6.179434484863281,22.459411764705884,-31.100671538850065,-3.435114503816794,-31.833085819469154,901.6739856818426,2000
2025-11-30T16:11:44.734105,-4.198473282442748,1.4045801526717556,-0.4122137404580153,-6.909665991210937,3.7205893798828122,-6.1650692749023435,22.506470588235295,-31.110777369118594,-4.198473282442748,-34.564657389275226,902.2162044162371,2000
2025-11-30T16:11:44.752429,-4.122137404580153,1.1374045801526718,0.5038167938931297,-6.940790612792968,3.73495458984375,-6.215347509765625,22.506470588235295,-31.002689105592097,-4.122137404580153,4.057687347763107,899.0320200000145,2000
2025-11-30T16:11:44.771284,-3.198473282442748,1.5954198473282444,0.7938931297709924,-7.024587670898437,3.6822821533203123,-6.2009822998046875,22.60058823529412,-30.70278917475288,-3.198473282442748,49.04207962602415,890.2535002275866,2000
2025-11-30T16:11:44.796833,-3.4580152671755724,1.786259541984733,-0.44274809160305345,-6.9360022094726554,3.706224169921875,-6.253654736328125,22.412352941176472,-30.65307301852621,-3.4580152671755724,-11.92840298410956,888.920838125645,2000
2025-11-30T16:11:44.820912,-3.7251908396946565,0.8702290076335878,-0.17557251908396945,-6.89530078125,3.7325603881835936,-6.251260534667968,22.506470588235295,-30.840970817630964,-3.7251908396946565,-11.719958715268206,894.4540925073468,2000
2025-11-30T16:11:44.840084,-3.5419847328244276,1.748091603053435,1.1526717557251909,-6.957550024414062,3.6367923217773437,-6.0908490234374995,22.60058823529412,-30.841053481714013,-3.5419847328244276,7.570362812009661,894.3905782961798,2000
2025-11-30T16:11:44.861623,-5.8396946564885495,1.8396946564885497,0.22137404580152673,-6.988674645996094,3.7205893798828122,-6.263231542968749,22.506470588235295,-30.711865989304357,-5.8396946564885495,-106.30618959212981,890.5962976276869,2000
2025-11-30T16:11:44.880586,-3.4656488549618323,0.9389312977099237,-0.3435114503816794,-6.864176159667968,3.7110125732421873,-6.167463476562499,22.459411764705884,-31.03566220734567,-3.4656488549618327,129.20536418346003,900.1751826183954,2000
2025-11-30T16:11:44.900780,-2.6106870229007635,1.015267175572519,0.5343511450381679,-6.959944226074218,3.775656018066406,-6.1818286865234375,22.553529411764707,-31.41520194573796,-2.6106870229007635,41.268324994373266,911.1874170674482,2000
2025-11-30T16:11:44.923978,-2.885496183206107,1.6412213740458015,0.4732824427480916,-6.962338427734375,3.754108203125,-6.2009822998046875,22.553529411764707,-31.19093924121873,-2.885496183206107,-13.483297385599323,904.449211796095,2000
2025-11-30T16:11:44.944170,-3.564885496183206,1.4122137404580153,-0.183206106870229,-7.029376074218749,3.763685009765625,-6.244077929687499,22.459411764705884,-31.079922630078467,-3.5648854961832064,-29.60556579128631,901.2790543436787,2000
2025-11-30T16:11:44.967844,-3.4656488549618323,1.5725190839694656,0.2748091603053435,-6.8785413696289055,3.8139632446289062,-6.1626750732421876,22.412352941176472,-31.752582795871387,-3.4656488549618327,4.181983554756628,921.0516764903739,2000
2025-11-30T16:11:44.989335,-3.2442748091603053,1.4885496183206106,0.5114503816793893,-6.959944226074218,3.801992236328125,-6.217741711425781,22.459411764705884,-31.444734086339544,-3.2442748091603053,10.281364697171167,911.782908162907,2000
2025-11-30T16:11:45.008181,-2.83206106870229,0.8549618320610687,-0.183206106870229,-7.0461354858398435,3.7708676147460936,-6.277596752929687,22.553529411764707,-30.9926694545208,-2.83206106870229,22.50474761744742,898.5899709724504,2000
2025-11-30T16:11:45.028185,-2.7557251908396947,0.9236641221374046,-0.15267175572519084,-7.0461354858398435,3.7325603881835936,-6.177040283203125,22.60058823529412,-31.1430395489924,-2.7557251908396947,3.7064686091313765,903.2065563660383,2000
2025-11-30T16:11:45.050499,-3.030534351145038,1.1603053435114503,0.08396946564885496,-6.847416748046874,3.8187516479492185,-6.208164904785156,22.412352941176472,-31.59640534273968,-3.030534351145038,-13.984702446043407,916.4803247905496,2000
2025-11-30T16:11:45.071505,-3.549618320610687,1.2900763358778626,0.5801526717557252,-6.962338427734375,3.797203833007812,-6.275202551269531,22.459411764705884,-31.178658800767728,-3.549618320610687,-23.304710504540086,904.0310645691505,2000
2025-11-30T16:11:45.093834,-3.2595419847328246,0.9694656488549618,0.12213740458015267,-6.9527616210937495,3.7421371948242186,-6.124367846679687,22.459411764705884,-31.425941421443092,-3.2595419847328246,12.293304394037198,911.4361390300767,2000
2025-11-30T16:11:45.115311,-2.183206106870229,0.5419847328244275,-0.19083969465648856,-6.873752966308594,3.763685009765625,-6.150704064941406,22.506470588235295,-31.462932687623557,-2.183206106870229,49.92236954398536,912.4387737060466,2000
2025-11-30T16:11:45.134658,-2.6412213740458017,0.5725190839694656,-0.4122137404580153,-6.931213806152344,3.797203833007812,-6.191405493164062,22.506470588235295,-31.52088924769901,-2.6412213740458017,-24.437486702568012,914.1305264445072,2000
2025-11-30T16:11:45.154013,-3.6412213740458017,1.381679389312977,0.25190839694656486,-6.8976949829101555,3.785232824707031,-6.121973645019531,22.506470588235295,-31.728613674593113,-3.6412213740458017,-50.031658177567294,920.2129389433723,2000
2025-11-30T16:11:45.176549,-3.50381679389313,1.2748091603053435,0.6183206106870229,-6.900089184570312,3.948038537597656,-6.169857678222656,22.412352941176472,-32.61482643346091,-3.50381679389313,6.749544189359753,946.178224666014,2000
2025-11-30T16:11:45.196642,-3.114503816793893,1.2213740458015268,0.3435114503816794,-6.928819604492187,3.842693664550781,-6.414066247558593,22.459411764705884,-30.925999845932196,-3.114503816793893,17.706730468767145,896.239505926952,2000
2025-11-30T16:11:45.218388,-2.900763358778626,0.6412213740458015,-0.48091603053435117,-6.921636999511718,3.7229835815429686,-6.208164904785156,22.459411764705884,-30.950756922650957,-2.900763358778626,9.737286114776769,897.5809735405516,2000
2025-11-30T16:11:45.248031,-2.717557251908397,0.5801526717557252,-0.15267175572519084,-6.8785413696289055,3.8187516479492185,-6.1076084350585935,22.506470588235295,-32.015476534884826,-2.717557251908397,9.355484889332674,928.8837817916318,2000
2025-11-30T16:11:45.266418,-2.946564885496183,1.0076335877862594,0.6641221374045801,-6.921636999511718,3.749319799804687,-6.212953308105468,22.506470588235295,-31.109645996568364,-2.946564885496183,-8.029287738554396,901.9256576875435,2000
2025-11-30T16:11:45.285263,-3.282442748091603,0.7938931297709924,0.2748091603053435,-6.866570361328125,3.8283284545898435,-6.222530114746093,22.506470588235295,-31.60135185881111,-3.2824427480916034,-17.96355532229192,916.6495847955383,2000
2025-11-30T16:11:45.308461,-3.1068702290076335,0.9236641221374046,0.26717557251908397,-6.947973217773437,3.8139632446289062,-6.174646081542968,22.506470588235295,-31.702848596015805,-3.1068702290076335,8.74974179965032,919.4230743981872,2000
2025-11-30T16:11:45.337462,-3.030534351145038,1.083969465648855,0.16793893129770993,-6.8569935546875,3.9552211425781247,-6.186617089843749,22.506470588235295,-32.591549357968326,-3.030534351145038,3.429916847308948,945.4743795672803,2000
2025-11-30T16:11:45.357255,-3.068702290076336,0.9236641221374046,-0.015267175572519083,-6.924031201171875,3.8139632446289062,-6.212953308105468,22.553529411764707,-31.54463334669347,-3.068702290076336,-1.285630045785834,914.5122566300854,2000
2025-11-30T16:11:45.378209,-2.450381679389313,0.48854961832061067,-0.08396946564885496,-6.770802294921874,3.794809631347656,-6.174646081542968,22.506470588235295,-31.57402277623816,-2.450381679389313,33.26438626400676,915.6593092412844,2000
2025-11-30T16:11:45.398738,-2.4732824427480917,0.8702290076335878,-1.916030534351145,-6.885723974609375,3.8570588745117185,-6.124367846679687,22.506470588235295,-32.20226824232329,-2.4732824427480917,-1.1056815010449668,934.1084397209368,2000
2025-11-30T16:11:45.422207,-2.8396946564885495,0.8854961832061069,-0.183206106870229,-6.871358764648437,3.8762124877929685,-6.1818286865234375,22.553529411764707,-32.08908189779133,-2.8396946564885495,-17.854918021010494,930.5392513342393,2000
2025-11-30T16:11:45.449687,-3.6946564885496183,1.5572519083969465,0.6106870229007634,-6.902483386230468,3.794809631347656,-6.198588098144531,22.60058823529412,-31.475196798956517,-3.6946564885496183,-29.433002274067945,912.611637807038,2000
2025-11-30T16:11:45.472426,-3.7404580152671754,1.5954198473282444,0.183206106870229,-6.864176159667968,3.938461730957031,-6.354211206054687,22.553529411764707,-31.791427053312688,-3.7404580152671754,-1.7540679941340096,922.0482702890021,2000
2025-11-30T16:11:45.493482,-3.236641221374046,1.1450381679389312,0.35877862595419846,-6.885723974609375,3.7708676147460936,-6.253654736328125,22.459411764705884,-31.089397905103322,-3.236641221374046,23.62895186113459,901.3291385333044,2000
2025-11-30T16:11:45.512363,-3.099236641221374,1.0229007633587786,0.1297709923664122,-6.9527616210937495,3.766079211425781,-6.167463476562499,22.459411764705884,-31.409768421467525,-3.099236641221374,7.507445746198472,911.0233182311838,2000
2025-11-30T16:11:45.531619,-2.786259541984733,0.9465648854961832,0.12213740458015267,-6.919242797851562,3.861847277832031,-6.148309863281249,22.506470588235295,-32.13355699157441,-2.786259541984733,15.7476139543743,932.1644952983406,2000
2025-11-30T16:11:45.553700,-2.687022900763359,0.6946564885496184,0.3282442748091603,-6.888118176269531,3.821145849609375,-6.143521459960938,22.506470588235295,-31.88077493219186,-2.687022900763359,5.3608006030340665,924.4332299798131,2000
2025-11-30T16:11:45.579483,-2.480916030534351,0.7557251908396947,-0.07633587786259542,-6.87614716796875,3.8762124877929685,-6.189011291503906,22.553529411764707,-32.059144653534304,-2.480916030534351,9.101747441318699,929.7782098788011,2000
2025-11-30T16:11:45.599675,-2.6946564885496183,0.7557251908396947,-0.35877862595419846,-6.868964562988281,3.88818349609375,-6.193799694824218,22.506470588235295,-32.11871799336793,-2.6946564885496183,-8.04375388521756,931.4607573277185,2000
2025-11-30T16:11:45.618228,-2.9083969465648853,0.732824427480916,-1.900763358778626,-6.9144543945312495,3.864241479492187,-6.124367846679687,22.506470588235295,-32.25035560965229,-2.9083969465648853,-11.354473535751579,935.3162562609974,2000
2025-11-30T16:11:45.641069,-2.7938931297709924,1.0687022900763359,0.061068702290076333,-6.928819604492187,3.8139632446289062,-6.1267620483398435,22.60058823529412,-31.90262688279289,-2.7938931297709924,5.014134355034264,925.0543629765774,2000
2025-11-30T16:11:45.674921,-2.9618320610687023,1.1145038167938932,-0.0916030534351145,-6.883329772949218,3.9624037475585934,-6.2584431396484375,22.60058823529412,-32.33909932736058,-2.9618320610687023,-8.819830352821182,938.017262054124,2000
2025-11-30T16:11:45.701516,-3.213740458015267,1.1145038167938932,0.366412213740458,-6.9336080078124995,3.83072265625,-6.179434484863281,22.506470588235295,-31.795384956542694,-3.213740458015267,-6.310843772639146,921.9571940827434,2000
2025-11-30T16:11:45.727919,-3.045801526717557,1.2442748091603053,0.26717557251908397,-6.785167504882812,3.9432501342773434,-6.2584431396484375,22.459411764705884,-32.213752023175616,-3.045801526717557,7.122141649707392,934.3407492923936,2000
2025-11-30T16:11:45.761467,-3.0076335877862594,1.0458015267175573,-1.900763358778626,-6.866570361328125,3.902548706054687,-6.129156249999999,22.459411764705884,-32.485671891124795,-3.0076335877862594,1.3536947313656027,942.1616378674673,2000
2025-11-30T16:11:45.780093,-2.6793893129770994,0.8091603053435115,0.13740458015267176,-6.902483386230468,3.878606689453125,-6.208164904785156,22.553529411764707,-31.99545119814396,-2.6793893129770994,11.580864006402646,927.7297200071259,2000
2025-11-30T16:11:45.799363,-2.801526717557252,1.015267175572519,0.12213740458015267,-6.866570361328125,3.8570588745117185,-6.177040283203125,22.553529411764707,-31.981422611670304,-2.801526717557252,-6.5441346505557,927.4552425136347,2000
2025-11-30T16:11:45.818301,-3.053435114503817,0.9923664122137404,-0.1297709923664122,-6.904877587890625,3.892971899414062,-6.138733056640625,22.553529411764707,-32.3814551255585,-3.053435114503817,-12.922950060501066,939.2263726111703,2000
2025-11-30T16:11:45.842770,-3.183206106870229,0.8244274809160306,-0.030534351145038167,-6.825868933105468,3.8474820678710935,-6.157886669921875,22.506470588235295,-31.99737289328991,-3.183206106870229,-7.073595055965193,927.7563285757684,2000
