timestamp,gyro_x,gyro_y,gyro_z,acc_x,acc_y,acc_z,temp,angle_deg,angular_velocity,angular_acceleration,pid_output,motor_pulse
2025-12-08T00:38:55.856226,28.012352941176474,0.7637417284763873,1.7794274809160306,128680.341395104,-241.67084161619817,1258
2025-12-08T00:38:55.877105,28.012352941176474,0.886535668293358,2.2259923664122145,22.1691705981463,-167.98628517111013,1332
2025-12-08T00:38:55.897904,27.965294117647062,-0.20029188958379063,2.569503816793893,15.961972108278795,-119.0467149226738,1380
2025-12-08T00:38:55.920923,28.012352941176474,-0.029403323039383533,3.157290076335878,26.29991742630665,-86.98728768964396,1413
2025-12-08T00:38:55.946710,27.965294117647062,-0.0317336268741939,1.405381679389313,-69.54943017592252,-64.09902062624163,1435
2025-12-08T00:38:55.966690,28.059411764705885,-1.1900043255615538,0.2367175572519091,-54.174164765391644,-47.50217024510707,1452
2025-12-08T00:38:55.987576,27.965294117647062,0.2137563851703499,3.195458015267176,148.37759529891395,-38.85010907405365,1461
2025-12-08T00:38:56.008757,27.91823529411765,-1.0234280884254896,3.237442748091603,1.9871889142415284,-33.403362532338406,1466
2025-12-08T00:38:56.029478,28.059411764705885,3.6091679923761224,0.508435114503817,-130.87753703020635,-27.415089150346134,1472
2025-12-08T00:38:56.053598,28.012352941176474,0.687860627613653,1.134389312977099,30.034916985726166,-23.66315892233803,1476
2025-12-08T00:38:56.076870,28.012352941176474,1.3329120116324351,-0.2358396946564885,-51.32490004673847,-19.661394398370927,1480
2025-12-08T00:38:56.097731,28.15352941176471,-0.802454256516316,1.0275190839694661,60.634513606961306,-17.73992571339911,1482
2025-12-08T00:38:56.118368,28.106470588235297,-1.135266770484824,-1.590801526717557,-125.55199051888674,-13.800749424786556,1486
2025-12-08T00:38:56.139197,28.012352941176474,-2.0755018984601294,-9.121335877862595,-356.44954183052937,-3.216854612769627,1496
2025-12-08T00:38:56.161425,28.012352941176474,0.4289572047903839,-16.850343511450383,-347.476366724774,13.598900757432817,1513
2025-12-08T00:38:56.182582,28.106470588235297,1.5014675451034987,-25.56026717557252,-411.9492074302515,37.01463160509693,1537
2025-12-08T00:38:56.209892,28.059411764705885,2.276617120595769,-33.735839694656484,-407.98139820444925,65.8845873910341,1565
2025-12-08T00:38:56.231239,28.059411764705885,5.773704575455993,-32.51064885496183,44.342245575068155,90.60610872985679,1590
2025-12-08T00:38:56.256886,28.012352941176474,6.522734971189058,-23.793091603053437,412.9015657328678,104.4447261770075,1604
2025-12-08T00:38:56.284011,28.106470588235297,8.761806460103948,-13.361793893129772,325.1682153362542,106.83606858588213,1606
2025-12-08T00:38:56.305795,28.059411764705885,7.414611058189063,3.893931297709923,788.664674630486,92.37732933632529,1592
2025-12-08T00:38:56.326532,28.012352941176474,6.5764922568156265,17.98553435114504,683.6047542613361,65.80828082326249,1565
2025-12-08T00:38:56.351110,28.059411764705885,5.638643737976656,23.012251908396948,241.94789544820358,37.07940636784267,1537
2025-12-08T00:38:56.373388,28.012352941176474,4.207413208632552,31.611488549618322,327.89218666734575,2.9844408548075787,1502
2025-12-08T00:38:56.401295,28.012352941176474,0.2470553888414645,36.80614503816794,234.7967938849035,-32.70021411280971,1467
2025-12-08T00:38:56.422159,28.059411764705885,-1.3440751715708639,34.874847328244286,-72.8811627042235,-62.92596065897191,1437
2025-12-08T00:38:56.443157,28.012352941176474,-1.4861309780231866,28.260343511450387,-312.93485778347434,-83.7712971157146,1416
2025-12-08T00:38:56.474743,28.012352941176474,-3.3669117668668886,22.16110687022901,-193.28945486789968,-96.64550367850838,1403
2025-12-08T00:38:56.496005,28.012352941176474,-5.424594522099415,19.45881679389313,-126.72435237405938,-105.64882261846725,1394
2025-12-08T00:38:56.516543,27.965294117647062,-5.589549490154306,8.260343511450381,-544.9817984642838,-102.97534190401542,1397
2025-12-08T00:38:56.541156,28.059411764705885,-3.4889782422865103,-1.7701908396946568,-488.78405947445816,-90.92504524012449,1409
2025-12-08T00:38:56.563952,28.012352941176474,-3.482845409560028,-7.453396946564886,-228.7519227183938,-74.63438301084892,1425
2025-12-08T00:38:56.585314,28.059411764705885,-5.363133338041319,-12.022099236641221,-198.86390919547875,-55.58719212048328,1444
2025-12-08T00:38:56.621994,28.012352941176474,0.31347324791215314,-21.91141221374046,-296.76033094682225,-28.96281432983537,1471
2025-12-08T00:38:56.646636,28.106470588235297,2.38979338051006,-23.84652671755725,-68.44884339978901,-3.1422448606500453,1496
2025-12-08T00:38:56.671241,28.059411764705885,0.5458219573751485,-23.117519083969462,34.17432782613515,19.39958480927153,1519
2025-12-08T00:38:56.693496,28.106470588235297,0.7096972720952017,-20.079351145038167,124.8848462232824,36.74464249469833,1536
2025-12-08T00:38:56.714134,28.059411764705885,-0.7020978086766976,-17.132786259541984,134.3580284125085,49.51984255991642,1549
2025-12-08T00:38:56.742485,27.965294117647062,-0.5384977778417989,-13.907595419847327,117.08513298736021,57.9074011490679,1557
2025-12-08T00:38:56.763342,27.965294117647062,-1.1257144545481985,-10.304541984732824,168.2846867009031,61.99615090104077,1561
2025-12-08T00:38:56.783912,28.012352941176474,-1.3481793966392628,-6.167137404580153,198.68712952854526,61.69732437165661,1561
2025-12-08T00:38:56.805645,28.012352941176474,-1.4200429024200618,-2.628969465648855,162.41465590039945,58.02907578316727,1558
2025-12-08T00:38:56.826704,28.059411764705885,-0.8619702723873979,1.9664503816793895,221.33582728349097,50.31052459599855,1550
2025-12-08T00:38:56.847934,28.012352941176474,-1.425933672113537,5.790877862595419,180.18727161425727,39.69197329084931,1539
2025-12-08T00:38:56.869382,28.012352941176474,-1.3426016296844479,8.439732824427482,123.40308295844841,27.595232931235035,1527
2025-12-08T00:38:56.890493,27.965294117647062,-0.8510267032679733,9.916832061068703,69.90424178457155,15.29432883172961,1515
2025-12-08T00:38:56.913651,28.059411764705885,0.8648684648126975,10.725992366412212,35.64796287320522,3.4541206228865247,1503
2025-12-08T00:38:56.944130,28.106470588235297,-1.1002434774233378,9.168740458015268,-70.68512086486453,-5.699197944257524,1494
2025-12-08T00:38:56.970836,28.059411764705885,-1.4144880977348744,5.504618320610687,-122.97016360934076,-10.404806755139228,1489
2025-12-08T00:38:56.991552,28.059411764705885,-0.6591697066562351,6.657290076335878,43.27049570598304,-15.752680090250067,1484
2025-12-08T00:38:57.013226,28.106470588235297,-0.9266652659085188,6.752709923664122,4.530448803806255,-20.66123418489775,1479
2025-12-08T00:38:57.035149,28.059411764705885,-0.8225697039984673,5.8137786259542,-42.28355323566275,-24.174013092261674,1475
2025-12-08T00:38:57.056466,28.012352941176474,-1.1850456180488904,4.4588167938931305,-63.32239726415971,-26.032181776131726,1473
2025-12-08T00:38:57.080737,28.15352941176471,-0.8326702700564268,4.905381679389314,18.180863169965484,-28.13520582175833,1471
2025-12-08T00:38:57.102916,27.965294117647062,-0.3103495870699259,2.806145038167939,-101.33547372734299,-28.008705249042603,1471
2025-12-08T00:38:57.123619,28.059411764705885,-1.2912275360757228,0.993167938931298,-81.72228717381853,-26.152076236299237,1473
2025-12-08T00:38:57.145258,28.059411764705885,-1.212604267893823,0.2756106870229007,-34.788048777173614,-23.792999642429795,1476
2025-12-08T00:38:57.172166,28.059411764705885,-1.531765218730175,-1.0068320610687023,-59.231761750557226,-20.4384655661237,1479
2025-12-08T00:38:57.198125,27.965294117647062,-1.8063700818309156,-3.621335877862596,-89.58657443441875,-14.909554543791442,1485
2025-12-08T00:38:57.228321,28.106470588235297,-1.5766578849224016,-4.426679389312977,-32.75019886998622,-9.159585544392582,1490
2025-12-08T00:38:57.251480,27.91823529411765,-1.223876204979232,-4.857977099236642,-13.601149672741714,-3.575856941265703,1496
2025-12-08T00:38:57.273951,28.012352941176474,-1.356777037430469,-5.987748091603053,-54.56956783323054,2.54073544497437,1502
2025-12-08T00:38:57.299472,28.059411764705885,-1.2671686495589052,-6.144236641221374,-6.869792131483441,8.191151120514867,1508
2025-12-08T00:38:57.323617,27.965294117647062,-0.2581153958666595,-5.961030534351146,6.376417781679752,13.095419050866948,1513
2025-12-08T00:38:57.348055,27.965294117647062,-0.011993877525120558,-6.441946564885497,-19.70062927818059,17.97329724655084,1517
2025-12-08T00:38:57.378675,28.059411764705885,0.2991545014858056,-6.503015267175572,-2.849775840167234,22.422512557927046,1522
2025-12-08T00:38:57.399695,28.012352941176474,0.7826886843978247,-5.510648854961833,32.78862491207658,25.467753836766324,1525
2025-12-08T00:38:57.421259,28.059411764705885,0.995769827171213,-5.2472900763358785,12.625376080121997,27.95818398871841,1527
2025-12-08T00:38:57.450362,28.059411764705885,2.2685947133144535,-5.628969465648856,-17.542345759418115,30.56669229748158,1530
2025-12-08T00:38:57.473706,28.106470588235297,2.8561502516972945,-4.6976717557251915,30.439950047331077,32.016534054516626,1532
2025-12-08T00:38:57.494886,28.20058823529412,2.9632391555886706,-3.7625572519083965,43.713549371592855,32.42332476569612,1532
2025-12-08T00:38:57.516337,28.012352941176474,4.055930875147887,-3.4114122137404577,15.587755074011108,32.45257531074504,1532
2025-12-08T00:38:57.537556,28.059411764705885,3.5975470253241384,-3.04881679389313,17.13347100003747,32.13093896677144,1532
2025-12-08T00:38:57.558197,28.106470588235297,4.337750038717607,-2.483931297709924,27.931641570093785,31.298621427220223,1531
2025-12-08T00:38:57.589546,28.106470588235297,4.471568184007381,-0.9801145038167938,72.70685164483967,29.103087916443755,1529
2025-12-08T00:38:57.614895,28.059411764705885,4.059378031096761,0.8939312977099237,59.57629627418176,25.328916691784542,1525
2025-12-08T00:38:57.637678,28.059411764705885,3.3860195180010173,1.6611068702290077,30.201302490230184,21.194380567833235,1521
2025-12-08T00:38:57.664516,28.106470588235297,2.550452578223222,2.5351526717557253,38.04734418422399,16.633536757283043,1516
2025-12-08T00:38:57.685383,28.012352941176474,3.209034513852279,2.241259541984733,-11.05242651995869,12.815622739054287,1512
2025-12-08T00:38:57.706055,27.91823529411765,2.659284775456631,3.538969465648855,62.56669835811393,8.12905305504639,1508
2025-12-08T00:38:57.729093,28.059411764705885,3.0533712111433937,3.6611068702290073,5.304273233106065,3.7974221606133787,1503
2025-12-08T00:38:57.752885,28.012352941176474,4.313182394299392,4.432099236641221,37.061640342130055,-0.8429147222303035,1499
2025-12-08T00:38:57.773683,28.059411764705885,4.13620241287321,2.955,-62.45806898310589,-3.5942246857361604,1496
2025-12-08T00:38:57.804070,27.965294117647062,1.8591412556266467,2.5504198473282442,-14.225744451752552,-5.680463728531496,1494
2025-12-08T00:38:57.825430,28.012352941176474,2.5351267358949867,2.428282442748092,-5.264427135753287,-7.442251515419336,1492
2025-12-08T00:38:57.846773,28.012352941176474,2.626063978244167,2.260343511450382,-7.902118391475215,-8.866929473003298,1491
2025-12-08T00:38:57.869421,28.012352941176474,1.5998419499745082,1.8366793893129771,-19.766141514320417,-9.741549861881195,1490
2025-12-08T00:38:57.891607,28.106470588235297,1.152426431652012,2.229809160305344,17.473145250427777,-10.907557083386974,1489
2025-12-08T00:38:57.916207,27.965294117647062,1.2124745444678608,1.7298091603053436,-19.455905000463886,-11.475617847701816,1488
2025-12-08T00:38:57.938536,28.059411764705885,0.5684392535692093,1.3519465648854965,-18.08284095407435,-11.623919066381092,1488
2025-12-08T00:38:57.961222,28.059411764705885,-0.3602565852842019,0.8328625954198474,-23.178179867199486,-11.258361992223728,1488
2025-12-08T00:38:57.982884,28.059411764705885,0.9335505449285253,1.12293893129771,12.309224174721903,-11.209431487151528,1488
2025-12-08T00:38:58.010519,28.012352941176474,0.42021979873669635,1.0618702290076336,-2.923713613940236,-11.10691687034263,1488
2025-12-08T00:38:58.038828,28.012352941176474,-0.4873910578575751,0.6801908396946567,-11.581440730626042,-10.647997301732417,1489
2025-12-08T00:38:58.070500,28.012352941176474,0.1278524900317781,0.8328625954198475,6.6387276789159,-10.381946334896883,1489
2025-12-08T00:38:58.091857,28.012352941176474,-0.7411257520169273,1.409198473282443,18.248942187028895,-10.69721436631746,1489
2025-12-08T00:38:58.120865,28.059411764705885,0.06199509754406313,1.603854961832061,7.31630557964762,-11.168086590960096,1488
2025-12-08T00:38:58.144147,28.012352941176474,1.269336576822206,2.4702671755725194,36.81263638863467,-12.425478331855505,1487
2025-12-08T00:38:58.164725,27.965294117647062,-0.01905989561412963,2.7259923664122137,10.968964154050678,-13.802310280038938,1486
2025-12-08T00:38:58.194714,28.012352941176474,0.05889867248780507,2.798511450381679,3.4302108191835683,-15.110736038336007,1484
2025-12-08T00:38:58.215903,28.106470588235297,1.3789196560925463,2.145839694656489,-22.08358883620806,-15.65884980264932,1484
2025-12-08T00:38:58.250703,28.059411764705885,0.49349209461673627,2.9435496183206107,37.15616031076894,-16.92063799105871,1483
2025-12-08T00:38:58.272006,28.012352941176474,1.016329151620216,3.1267557251908396,5.2635616852655245,-18.230568083635724,1481
2025-12-08T00:38:58.294234,28.106470588235297,1.386316403969393,2.428282442748092,-33.315243841461374,-18.738262851746793,1481
2025-12-08T00:38:58.315497,28.059411764705885,0.45094971658289706,2.1000381679389317,-14.548681455433837,-18.879263872064804,1481
2025-12-08T00:38:58.339629,27.965294117647062,0.011049316155979233,2.3290458015267173,10.910499376259796,-19.227019136890476,1480
2025-12-08T00:38:58.361841,28.059411764705885,1.1084525129754557,2.191641221374046,-5.671123467646795,-19.407698423003026,1480
2025-12-08T00:38:58.384122,27.91823529411765,0.6145674597438705,1.718358778625954,-21.183110229835265,-19.114972882987274,1480
2025-12-08T00:38:58.412266,28.106470588235297,-1.2114521437875725,0.1763740458015267,-52.35231572883403,-17.368997049048094,1482
2025-12-08T00:38:58.432966,28.106470588235297,-0.22950323012141888,-0.40377862595419833,-28.2361701566029,-15.238956056977065,1484
2025-12-08T00:38:58.453976,28.012352941176474,0.12306307968234552,-0.5488167938931294,-6.953741503365572,-13.18422296615891,1486
2025-12-08T00:38:58.477506,28.012352941176474,-0.7720009816600711,-0.8694274809160303,-13.459230993503297,-11.028430033927505,1488
2025-12-08T00:38:58.499284,28.012352941176474,-0.198353205974375,-1.1671374045801528,-13.646989843212754,-8.802131687639022,1491
2025-12-08T00:38:58.522072,27.87117647058824,1.1370942501309191,-1.1289694656488551,1.677578267712808,-6.836458444945674,1493
2025-12-08T00:38:58.543600,28.012352941176474,0.8367852693511604,-0.480114503816794,30.116026445849272,-5.692266679727081,1494
2025-12-08T00:38:58.564160,28.059411764705885,-0.04669634120035236,0.046603053435114394,25.67509509270624,-5.1693478307475775,1494
2025-12-08T00:38:58.584636,28.012352941176474,0.24155531451554824,0.09622137404580156,2.4131155063099334,-4.745991018777475,1495
2025-12-08T00:38:58.605115,28.012352941176474,0.2412472803379832,0.37103053435114497,13.408791897550554,-4.629153808278025,1495
2025-12-08T00:38:58.625580,27.91823529411765,-0.31489760310706844,0.4664503816793893,4.663479926919653,-4.61535554504081,1495
2025-12-08T00:38:58.649402,28.012352941176474,-0.0745331308906145,0.649656488549618,7.709044190997289,-4.778825671562654,1495
2025-12-08T00:38:58.672676,28.059411764705885,-0.14421750486598325,1.8901145038167941,53.52294065578119,-6.119363858386476,1493
2025-12-08T00:38:58.693388,27.965294117647062,0.10990538477776919,1.9511832061068703,2.9335918166833825,-7.383682459853045,1492
2025-12-08T00:38:58.713974,28.106470588235297,-0.2973998776592693,2.222175572519084,13.125295808358326,-8.781440431416849,1491
2025-12-08T00:38:58.734623,28.012352941176474,0.3104984450180466,2.080954198473283,-6.842155181307628,-9.902509695694786,1490
2025-12-08T00:38:58.758199,27.965294117647062,0.902645790064666,2.035152671755726,-1.9460818801543522,-10.866527826346571,1489
2025-12-08T00:38:58.779715,28.012352941176474,0.3202730305641474,1.8977480916030534,-6.377864369454788,-11.601895693901907,1488
2025-12-08T00:38:58.800953,28.059411764705885,0.5912371909615145,1.103854961832061,-38.776657464260666,-11.499435427066379,1488
2025-12-08T00:38:58.829770,28.012352941176474,0.9450493740683448,0.5427862595419848,-26.424270725707697,-10.867780241302379,1489
2025-12-08T00:38:58.864827,28.059411764705885,0.6019965687013283,0.8443129770992365,8.03031759195664,-10.590858711991247,1489
2025-12-08T00:38:58.902753,28.106470588235297,0.3601148260079976,0.4779007633587785,-13.587765472264339,-9.989194735919314,1490
2025-12-08T00:38:58.926632,28.106470588235297,0.48476612845951866,-0.5450000000000002,-25.27768833469106,-8.465217857364982,1491
2025-12-08T00:38:58.947342,28.012352941176474,0.5807889446750156,-1.5411832061068702,-47.890416932466096,-6.133333202081289,1493
2025-12-08T00:38:58.978046,28.012352941176474,0.48802501804570847,-0.12133587786259546,67.49788990291485,-5.403537748596052,1494
2025-12-08T00:38:58.999460,28.012352941176474,1.04137624833774,0.6343893129770991,24.76553786108051,-5.474212943462462,1494
2025-12-08T00:38:59.020658,28.106470588235297,0.5805334298410827,-0.060267175572519045,-32.71796802485758,-4.868515696287806,1495
2025-12-08T00:38:59.051527,28.012352941176474,0.7354538354128575,-0.037366412213740256,0.7306670776346945,-4.346089790377115,1495
2025-12-08T00:38:59.073214,28.012352941176474,1.0575822657742684,1.3175954198473283,64.00344428746388,-5.179765927085771,1494
2025-12-08T00:38:59.093429,28.059411764705885,0.5654683532226656,1.6534732824427487,15.76973898622497,-6.2522795029153295,1493
2025-12-08T00:38:59.115757,28.012352941176474,0.7902236875000347,0.9130152671755724,-33.13954943944661,-6.503678716188307,1493
2025-12-08T00:38:59.136742,28.106470588235297,0.7407632733763556,0.9435496183206108,1.452703620066231,-6.759345682239409,1493
2025-12-08T00:38:59.164294,28.106470588235297,0.41403102145429804,1.9855343511450385,51.785680650572644,-7.992638003836785,1492
2025-12-08T00:38:59.185034,28.012352941176474,0.14375965837366275,1.8366793893129771,-5.385098731505894,-8.957484000981735,1491
2025-12-08T00:38:59.205680,28.106470588235297,-0.30212684905560777,1.1725572519083969,-32.16064721698337,-9.186821457090602,1490
2025-12-08T00:38:59.227643,28.106470588235297,-0.4785944040616346,1.5466030534351147,16.675649722332025,-9.753407221562933,1490
2025-12-08T00:38:59.248428,28.059411764705885,-0.714071773895209,2.470267175572519,44.3066380235067,-11.15248466343523,1488
2025-12-08T00:38:59.270749,28.106470588235297,-0.35814164856960107,2.409198473282443,-3.0173958897615036,-12.351987066489478,1487
2025-12-08T00:38:59.290901,28.012352941176474,-0.6284674553683285,1.4473664122137404,-43.22991921419528,-12.504836339717832,1487
2025-12-08T00:38:59.311636,28.059411764705885,-1.025058297532437,0.4626335877862594,-47.65016698886098,-11.694896752983395,1488
2025-12-08T00:38:59.332241,28.012352941176474,-0.9757602642637273,2.321412213740458,90.08461159588417,-12.756665872818472,1487
2025-12-08T00:38:59.352886,28.012352941176474,-0.04626830094527397,2.535152671755725,10.411014493267517,-13.917163512775598,1486
2025-12-08T00:38:59.375485,28.059411764705885,-0.5077589903841785,1.8786641221374045,-28.8740135022841,-14.328679215917813,1485
2025-12-08T00:38:59.397294,28.106470588235297,-0.3716181472698229,1.657290076335878,-10.169768631247482,-14.486111141062638,1485
2025-12-08T00:38:59.417773,28.059411764705885,-1.0620417563304239,2.691641221374046,51.44348173358197,-15.623958542330312,1484
2025-12-08T00:38:59.438707,27.965294117647062,0.5212915634522763,2.9588167938931296,12.980905065784949,-16.90435897508426,1483
2025-12-08T00:38:59.459809,28.106470588235297,-0.17986787601511345,1.8290458015267173,-53.52599704465669,-16.968285146601115,1483
2025-12-08T00:38:59.483529,28.15352941176471,-1.1177467904097764,0.7870610687022903,-43.42996425380276,-16.023599938363926,1483
2025-12-08T00:38:59.505835,28.012352941176474,-1.4321459010340434,2.3710305343511453,70.933690643272,-16.699002220125333,1483
2025-12-08T00:38:59.582893,28.106470588235297,-2.51452330579431,-0.03354961832061055,-31.785002293288027,-14.995267956616436,1485
2025-12-08T00:38:59.609207,28.012352941176474,-1.965357060909462,0.3252290076335878,16.286531228873212,-13.804833977502694,1486
2025-12-08T00:38:59.633270,28.15352941176471,-1.5955561051644236,2.1840076335877865,65.65732955444744,-14.523289588815283,1485
2025-12-08T00:38:59.655366,28.059411764705885,-1.661131870228667,-0.12133587786259546,-103.4704281589126,-12.950602759074577,1487
2025-12-08T00:38:59.677572,28.012352941176474,-1.973441329089174,-1.0908015267175573,-43.504019010302585,-10.603415509579436,1489
2025-12-08T00:38:59.700985,28.059411764705885,-1.999290931786181,-0.18622137404580152,40.26536080605088,-9.36338353692777,1490
2025-12-08T00:38:59.733146,27.965294117647062,-1.3873967678343004,-1.0755343511450384,-38.452923900283885,-7.391927166242216,1492
2025-12-08T00:38:59.758400,28.106470588235297,-1.0775834454822526,-5.155687022900763,-114.22793437207628,-1.6969394062334708,1498
2025-12-08T00:38:59.780699,28.059411764705885,-0.8458370834609475,-5.823625954198473,-30.69977789183954,4.074754245996425,1504
2025-12-08T00:38:59.801636,28.059411764705885,-0.1378874506175512,-5.89232824427481,-3.123599380786759,9.331339768715837,1509
2025-12-08T00:38:59.825543,28.059411764705885,0.05916877118786324,-7.892328244274809,-83.06621644370065,15.983184243039954,1515
2025-12-08T00:38:59.847384,28.012352941176474,0.701942238480026,-9.468664122137406,-70.81261115010066,23.48535705743903,1523
2025-12-08T00:38:59.876291,28.012352941176474,0.46761582906543486,-9.125152671755727,16.44251078882615,29.904087095890795,1529
2025-12-08T00:38:59.897195,28.106470588235297,0.7602272507255043,-8.71293893129771,14.437511402191273,35.27744202301416,1535
2025-12-08T00:38:59.918095,28.106470588235297,1.4320052844105546,-9.05645038167939,-16.5103413744377,40.44794449608537,1540
2025-12-08T00:38:59.950363,27.965294117647062,1.361320644008549,-8.724389312977099,10.278405572546152,44.775813792574915,1544
2025-12-08T00:38:59.971982,28.059411764705885,1.8327342183607334,-7.2396564885496195,71.822259410277,47.246275907795976,1547
2025-12-08T00:38:59.992437,28.15352941176471,1.9300091036508258,-5.651870229007633,73.91735770225084,47.941554729761286,1547
2025-12-08T00:39:00.015836,28.059411764705885,2.475000214720087,-3.987748091603053,71.16833176043416,46.96747000312111,1546
2025-12-08T00:39:00.037797,28.15352941176471,2.6305196484894493,-2.4877480916030534,68.26666666666665,44.64944420855368,1544
2025-12-08T00:39:00.070668,27.965294117647062,2.16987389702859,0.9320992366412215,103.92609279991504,39.27946334385466,1539
2025-12-08T00:39:00.091462,28.106470588235297,2.4585275318721838,2.3748473282442752,68.13249818844427,33.05610987833136,1533
2025-12-08T00:39:00.113202,28.059411764705885,2.631342048552969,2.905381679389313,24.422397778003788,26.95000355186481,1526
2025-12-08T00:39:00.133758,28.106470588235297,2.285749499376424,3.61530534351145,34.435476629144624,20.77403634985822,1520
2025-12-08T00:39:00.156943,28.106470588235297,2.113735364109459,5.229809160305343,69.67793526633355,13.66709305578187,1513
2025-12-08T00:39:00.177685,28.012352941176474,2.014844145543166,6.3023282442748085,52.20945525834433,6.239221051422151,1506
2025-12-08T00:39:00.199048,28.012352941176474,1.5539667387209675,5.8595801526717555,-21.9086393856097,-0.016186075455208233,1499
2025-12-08T00:39:00.220394,28.059411764705885,1.6814805670563437,4.684007633587787,-52.8156273132595,-4.510817416354371,1495
2025-12-08T00:39:00.241724,28.012352941176474,1.858804647774864,4.909198473282443,10.563315323991008,-8.773294298225611,1491
2025-12-08T00:39:00.266024,28.059411764705885,1.7734424015158028,4.9091984732824425,-3.270589977219296e-14,-12.607878256149874,1487
2025-12-08T00:39:00.289129,28.059411764705885,2.2615204447497455,4.084770992366413,-35.85358993121497,-15.266259697476459,1484
2025-12-08T00:39:00.310063,28.15352941176471,2.1319588011297936,3.878664122137405,-9.888075289147473,-17.46170171399277,1482
2025-12-08T00:39:00.330782,28.15352941176471,2.5581124332642164,4.149656488549618,13.075168140023115,-19.6989507926603,1480
2025-12-08T00:39:00.351448,28.059411764705885,2.2547425723986594,3.8137786259541984,-16.225627275815654,-21.38916102440965,1478
2025-12-08T00:39:00.377259,28.106470588235297,2.3512339915105454,2.737442748091603,-41.33079318363968,-21.87420100556046,1478
2025-12-08T00:39:00.397966,28.012352941176474,2.113192336371034,1.9626335877862597,-37.97320854284645,-21.566356910807574,1478
2025-12-08T00:39:00.424482,28.15352941176471,2.2146149426953166,0.9015648854961833,-51.307870674314934,-20.26930293615838,1479
2025-12-08T00:39:00.445883,28.059411764705885,2.27052723363726,0.06950381679389316,-30.15229490079133,-18.304335600463386,1481
2025-12-08T00:39:00.478268,28.059411764705885,2.3795858251477338,-0.17477099236641225,-11.464922611316574,-16.301188779127163,1483
2025-12-08T00:39:00.500317,28.106470588235297,2.192546564157582,-0.8617938931297711,-21.747795477459313,-13.840952407953857,1486
2025-12-08T00:39:00.521253,28.012352941176474,2.684765393428768,-1.5068320610687023,-29.211235050842507,-11.005026053324617,1488
2025-12-08T00:39:00.544834,28.012352941176474,2.663182781389417,-1.2511068702290078,10.746309897201623,-8.701104104426484,1491
2025-12-08T00:39:00.566844,28.012352941176474,2.2694695362072195,-0.8579770992366411,17.68661865934814,-7.006445701227623,1492
2025-12-08T00:39:00.597934,28.106470588235297,2.8244318417209824,-1.2243893129770993,-17.09979653675058,-5.128733768479778,1494
2025-12-08T00:39:00.631908,27.965294117647062,1.292683221187998,-0.995381679389313,7.598630099264177,-3.6610441714010142,1496
2025-12-08T00:39:00.653843,27.965294117647062,1.5633115862886036,0.4168320610687024,41.51599969481486,-3.698261677118223,1496
2025-12-08T00:39:00.678533,28.15352941176471,1.290823283071683,-0.05645038167938944,-21.70968790599196,-3.275199528631353,1496
2025-12-08T00:39:00.700603,27.91823529411765,1.1751528985339244,-0.20912213740458008,-5.8306025506272645,-2.7474555904935998,1497
2025-12-08T00:39:00.738401,28.012352941176474,0.6890370682430468,0.4206488549618322,20.755354865921866,-2.8782393274240134,1497
2025-12-08T00:39:00.761197,28.15352941176471,0.8667334267583189,-0.342709923664122,-25.30854546811653,-2.26118305258598,1497
2025-12-08T00:39:00.783901,28.059411764705885,0.5874326237487181,-0.644236641221374,-14.186939453219502,-1.4152269718879296,1498
2025-12-08T00:39:00.804833,28.059411764705885,0.3298938270314337,-0.7014885496183207,-2.5646076532520286,-0.5993674135774603,1499
2025-12-08T00:39:00.828088,28.106470588235297,0.21354489208866384,-1.2014885496183207,-23.96252199547521,0.6160397260438006,1500
2025-12-08T00:39:00.849289,28.012352941176474,-0.20429821419441216,-2.0831679389312976,-38.21859641704193,2.5574279087262797,1502
2025-12-08T00:39:00.871930,28.012352941176474,0.5059124794820946,-2.5602671755725193,-21.82890344534014,4.763054466467363,1504
2025-12-08T00:39:00.894300,28.15352941176471,0.7427986072348292,-2.6175190839694658,-2.5966662888820653,6.801937043715343,1506
2025-12-08T00:39:00.915936,28.059411764705885,0.9870504904470189,-2.499198473282443,5.1097331289913095,8.52195685335795,1508
2025-12-08T00:39:00.940195,28.012352941176474,1.252109028431434,-2.896145038167939,-18.864604841432833,10.452104101224863,1510
2025-12-08T00:39:00.964585,28.059411764705885,1.7456777840788682,-2.4724809160305345,15.265724441272166,11.779725951075694,1511
2025-12-08T00:39:00.985731,28.059411764705885,1.6450902503631797,-1.7740076335877861,33.24681142620322,12.303182671797714,1512
2025-12-08T00:39:01.006919,27.965294117647062,2.2387762910370688,-1.148053435114504,29.627514511914253,12.172184075801285,1512
2025-12-08T00:39:01.028213,28.012352941176474,2.260707210604635,-0.45339694656488544,32.969724443824056,11.386447409845445,1511
2025-12-08T00:39:01.051428,28.059411764705885,2.2607322230317215,0.26797709923664137,29.944894110326764,9.986563605960036,1509
2025-12-08T00:39:01.072250,28.106470588235297,2.1110884969153303,1.138206106870229,41.6135193318313,7.889731316777572,1507
2025-12-08T00:39:01.093256,28.059411764705885,2.4258500478646017,2.1840076335877865,51.71981849898667,4.99733503972544,1504
2025-12-08T00:39:01.120710,27.965294117647062,2.08090755740407,2.7946946564885495,29.321477893914118,1.8087527875338232,1501
2025-12-08T00:39:01.143769,28.106470588235297,1.9684772169680924,3.1420229007633593,12.51234867837748,-1.391052318340038,1498
2025-12-08T00:39:01.174502,28.059411764705885,1.0405086717912753,3.8939312977099236,32.58829653264338,-4.994912072436644,1495
2025-12-08T00:39:01.196475,28.15352941176471,1.4601222226913728,4.161106870229008,8.730391347006691,-8.491670123271707,1491
2025-12-08T00:39:01.216945,28.15352941176471,0.8623329737155212,3.6878244274809164,-21.721803350017964,-11.185101677903363,1488
2025-12-08T00:39:01.240915,28.106470588235297,-0.3642230374152369,3.1038549618320608,-24.94546650964331,-13.045934171345866,1486
2025-12-08T00:39:01.264091,28.012352941176474,0.4405370668281238,2.4435496183206107,-27.845299599958274,-14.085277045019712,1485
2025-12-08T00:39:01.294553,28.059411764705885,-0.35042333040375173,1.3939312977099236,-34.45445760603159,-14.01124060767218,1485
2025-12-08T00:39:01.315391,28.106470588235297,-0.448256017464591,0.4702671755725193,-44.2590579797037,-13.056568865267955,1486
2025-12-08T00:39:01.336132,28.106470588235297,-0.26129597833052315,-0.4228625954198473,-43.12703941921423,-11.339204914738184,1488
2025-12-08T00:39:01.365359,27.965294117647062,-0.7420479728889867,-1.7663740458015267,-45.41794643740474,-8.504584013110367,1491
2025-12-08T00:39:01.386572,28.059411764705885,1.4518498013535472,-3.086984732824427,-62.62060152195377,-4.681757569494855,1495
2025-12-08T00:39:01.409329,28.012352941176474,1.0906469904305507,-9.842709923664122,-294.5301248450169,5.2569863743538,1505
2025-12-08T00:39:01.430163,28.059411764705885,1.107394075050906,-13.537366412213741,-176.76764639141302,17.753591805873178,1517
2025-12-08T00:39:01.456223,28.106470588235297,1.7286174984069105,-14.18240458015267,-32.138535173064696,29.613900785303336,1529
2025-12-08T00:39:01.477647,28.20058823529412,1.1498421545172517,-14.022099236641223,5.950329154857565,40.118791897314324,1540
2025-12-08T00:39:01.499230,28.012352941176474,3.287639686489242,-12.472480916030534,75.27442608849036,48.08586231240943,1548
2025-12-08T00:39:01.522385,28.106470588235297,3.521482219813681,-7.514465648854962,205.97481470246498,50.47999501701958,1550
2025-12-08T00:39:01.544537,28.059411764705885,3.384820572415521,-7.125152671755725,17.504201885590984,52.263997410651164,1552
2025-12-08T00:39:01.569818,27.91823529411765,4.100986309880447,-5.079351145038168,84.08342505357723,51.903149018734545,1551
2025-12-08T00:39:01.592004,28.012352941176474,5.43864994716562,0.6649236641221373,258.40020172844595,46.05274538728631,1546
2025-12-08T00:39:01.616714,28.106470588235297,4.911442030043733,4.546603053435114,151.60012095008082,37.06161496259682,1537
2025-12-08T00:39:01.638247,28.106470588235297,4.54322266721776,3.0695038167938926,-68.47792420546709,30.395004978651016,1530
2025-12-08T00:39:01.659661,28.012352941176474,4.859140791467722,1.5656870229007636,-70.2562408818767,25.847162759367396,1525
2025-12-08T00:39:01.680306,28.059411764705885,3.2304058489096317,0.9168320610687023,-30.78161539402647,22.380364934125424,1522
2025-12-08T00:39:01.700903,27.965294117647062,2.086402185381775,0.21072519083969465,-34.36080924249359,19.940496233853935,1519
2025-12-08T00:39:01.722992,28.012352941176474,1.883529545128868,0.638206106870229,19.320333567131822,17.3334920418599,1517
2025-12-08T00:39:01.743887,28.106470588235297,0.797599724389742,2.428282442748092,86.96299773999401,13.263480100338356,1513
2025-12-08T00:39:01.765216,28.059411764705885,1.4599944424203586,4.7946946564885495,114.69737697305699,7.3241840935206755,1507
2025-12-08T00:39:01.793480,28.106470588235297,1.443624365155653,4.813778625954199,0.9068083093423465,1.9641841161044042,1501
2025-12-08T00:39:01.817865,28.106470588235297,1.4234235895026712,3.9511832061068697,-27.842237697561544,-2.023560286520169,1497
2025-12-08T00:39:01.851099,27.965294117647062,0.9587739877781829,6.695458015267176,121.07972323024813,-8.256884174505347,1491
2025-12-08T00:39:01.872971,28.106470588235297,1.0370391989163603,7.4091984732824425,22.07832658280183,-14.546083439335066,1485
2025-12-08T00:39:01.897791,28.012352941176474,0.9827973470443652,5.115305343511451,-87.91459287613183,-18.00099639324172,1481
2025-12-08T00:39:01.921681,28.059411764705885,0.603843661115947,3.481717557251909,-68.28138427301079,-19.539287521060736,1480
2025-12-08T00:39:01.949290,28.059411764705885,0.7147880249413523,1.5733206106870226,-88.34095164405889,-19.088375956053586,1480
2025-12-08T00:39:01.970827,28.106470588235297,1.5548643002739782,0.9130152671755724,-24.144309793747983,-18.049973239896264,1481
2025-12-08T00:39:01.992016,28.012352941176474,1.3292127673998115,0.867213740458015,-2.205169276798264,-17.072654649530264,1482
2025-12-08T00:39:02.021590,28.012352941176474,1.0012558101309676,2.5656870229007636,56.30305768243195,-17.829137907593616,1482
2025-12-08T00:39:02.042856,28.106470588235297,1.4757560782800456,3.6496564885496188,52.62637125716335,-19.553892960932398,1480
2025-12-08T00:39:02.064499,28.012352941176474,0.5066482070503876,3.4435496183206107,-9.043475538795583,-20.906001261331173,1479
2025-12-08T00:39:02.085456,28.106470588235297,0.7905080021702994,2.565687022900764,-41.8925794773113,-21.277468774667977,1478
2025-12-08T00:39:02.111026,28.106470588235297,-0.11548300293372842,4.203091603053436,64.11647945322434,-23.187426543076516,1476
2025-12-08T00:39:02.131380,28.059411764705885,0.21435402965135325,3.7832442748091606,-20.623848781920433,-24.50223260608154,1475
2025-12-08T00:39:02.152298,27.965294117647062,0.37073840671698954,2.657290076335878,-54.91133201331662,-24.60094657679073,1475
2025-12-08T00:39:02.175409,27.965294117647062,-0.23710852859497872,1.336679389312977,-57.193155119598785,-23.41943687011418,1476
2025-12-08T00:39:02.197727,28.012352941176474,-0.060087094666614035,0.309961832061069,-45.957606023840285,-21.369294786336813,1478
2025-12-08T00:39:02.222193,28.012352941176474,0.09442982127701931,0.19164122137404585,-5.06070128372312,-19.412451745087203,1480
2025-12-08T00:39:02.244456,28.059411764705885,0.2305881647187023,-0.6137022900763356,-35.99705352313459,-16.87725631074583,1483
2025-12-08T00:39:02.270163,28.059411764705885,0.9827886314229823,-1.7472900763358779,-50.97303500605233,-13.506070714337731,1486
2025-12-08T00:39:02.291596,28.059411764705885,0.17681161226890285,-1.5869847328244275,6.212928576814576,-10.629449031632022,1489
2025-12-08T00:39:02.312132,28.106470588235297,0.2710183195312543,-0.6518702290076337,45.37902493106401,-8.94012273086529,1491
2025-12-08T00:39:02.333300,27.91823529411765,1.262263793046447,-0.8885114503816793,-11.20456539977925,-7.192271630125891,1492
2025-12-08T00:39:02.354394,28.106470588235297,0.8511286602429777,-1.6098854961832063,-34.461235843250236,-4.925045841253384,1495
2025-12-08T00:39:02.375216,28.15352941176471,0.46482162969372365,-1.5869847328244273,1.0981098119237238,-2.9074579225648303,1497
2025-12-08T00:39:02.395908,28.106470588235297,0.599236856525938,-0.7053053435114502,42.641384038016895,-1.9409754523383456,1498
2025-12-08T00:39:02.416512,28.106470588235297,0.5459659592301556,-0.2511068702290077,21.886268548676423,-1.5080068191034313,1498
2025-12-08T00:39:02.440237,28.059411764705885,0.7550737680427526,-0.9037786259541986,-27.481114659838887,-0.4896843761112614,1499
2025-12-08T00:39:02.462082,28.106470588235297,0.15837205143499267,-0.9266793893129773,-1.0490805203068971,0.449042804294485,1500
2025-12-08T00:39:02.482545,28.012352941176474,0.19643372985264507,-0.4839312977099235,21.59451237401076,0.867701278942328,1500
2025-12-08T00:39:02.503490,28.106470588235297,-0.4222907374145012,-0.21293893129771013,12.940449324440282,0.9838884021668783,1500
2025-12-08T00:39:02.533577,28.106470588235297,-0.02567671317701673,-0.8579770992366414,-31.530635370187415,1.7099267994514535,1501
2025-12-08T00:39:02.570985,28.106470588235297,-0.4384482141106635,-1.8427099236641222,-31.743706043419802,3.309524644087564,1503
2025-12-08T00:39:02.592902,28.106470588235297,-0.14608897527856546,-2.0335496183206105,-5.197086650541743,4.931647816547524,1504
2025-12-08T00:39:02.617623,28.106470588235297,-0.11634097151957619,-2.4419465648854963,-18.736433354460978,6.785950979625916,1506
2025-12-08T00:39:02.641384,28.059411764705885,0.24925057918177493,-2.9114122137404577,-16.826737498867388,8.904331268154525,1508
2025-12-08T00:39:02.672775,28.059411764705885,0.6460655937702189,-1.6824045801526717,56.469027381940116,9.628266055776159,1509
2025-12-08T00:39:02.693608,28.106470588235297,0.732585989024823,-1.9419465648854963,-8.548684121632665,10.529143996761753,1510
2025-12-08T00:39:02.714305,28.15352941176471,1.13274592372776,-1.426679389312977,24.782835566452842,10.844750008301551,1510
2025-12-08T00:39:02.741977,28.059411764705885,1.5787858905651586,0.4473664122137403,67.80110583382256,9.326056866351307,1509
2025-12-08T00:39:02.763375,28.106470588235297,1.7590928808799395,0.7259923664122137,13.001089736099072,7.691724985803653,1507
2025-12-08T00:39:02.783491,28.012352941176474,1.531937357448467,1.7450763358778625,49.652645286236265,5.241109750196786,1505
2025-12-08T00:39:02.807868,27.965294117647062,1.5996743841333712,2.718358778625954,47.3517583921784,2.1006091240148645,1502
2025-12-08T00:39:02.828875,28.106470588235297,1.481651946823499,3.321412213740458,24.26598713606147,-1.3024361023582414,1498
2025-12-08T00:39:02.855581,28.012352941176474,1.1982203072476603,4.5160687022900765,59.682367027759675,-5.5156802425090765,1494
2025-12-08T00:39:02.876564,28.059411764705885,0.8885697655324676,5.26797709923664,27.501001917965795,-10.025208978778968,1489
2025-12-08T00:39:02.899707,28.059411764705885,0.7971720206484838,5.626755725190839,15.605378263550744,-14.4294279667279,1485
2025-12-08T00:39:02.921987,28.15352941176471,0.4414374300800037,5.657290076335879,1.3672504659447238,-18.421174915919604,1481
2025-12-08T00:39:02.946770,28.20058823529412,0.4192969626278934,5.676374045801527,0.9109258966627092,-22.031462782134238,1477
2025-12-08T00:39:02.969132,28.012352941176474,-0.23646817701374537,5.191641221374046,-19.91553111000893,-24.811893747859788,1475
2025-12-08T00:39:02.990707,28.059411764705885,-0.6755382362923482,3.836679389312977,-60.43431200218071,-26.010732606161017,1473
2025-12-08T00:39:03.014196,28.106470588235297,-0.7949620995015684,2.096221374045802,-70.7139191466602,-25.41567057569361,1474
2025-12-08T00:39:03.036910,28.012352941176474,-1.4322112954201707,0.9664503816793896,-49.88685812128412,-23.794736235198155,1476
2025-12-08T00:39:03.057597,28.012352941176474,-1.5641802773234543,0.6725572519083969,-14.291743049599349,-22.0549613251224,1477
2025-12-08T00:39:03.078168,28.059411764705885,-0.9941577580518942,-0.006832061068702468,-32.91061168767222,-19.837127564380136,1480
2025-12-08T00:39:03.098708,28.106470588235297,-1.1021944236310066,-2.5831679389312976,-125.24119884867578,-15.362696210380616,1484
2025-12-08T00:39:03.122611,28.012352941176474,-0.4246355436741277,-5.098435114503816,-105.42836903216393,-8.920460433527948,1491
2025-12-08T00:39:03.144321,28.106470588235297,-0.17241208968641386,-5.132786259541985,-1.5809419546625343,-3.0918903982979797,1496
2025-12-08T00:39:03.166249,28.012352941176474,-0.47561307130988567,-5.9839312977099235,-38.894819830777784,2.969869962625023,1502
2025-12-08T00:39:03.194521,28.059411764705885,0.1738830797634505,-7.258740458015267,-62.15561941651082,9.650968727697187,1509
2025-12-08T00:39:03.217935,28.059411764705885,0.8848451717661361,-7.300725190839694,-1.4686476916902602,15.696020518236102,1515
2025-12-08T00:39:03.251481,28.012352941176474,0.7490938676734231,-5.739656488549619,66.15270923840967,19.635996733566177,1519
2025-12-08T00:39:03.273464,28.012352941176474,1.320561623352255,-4.945763358778626,23.88035635745633,22.41595997136243,1522
2025-12-08T00:39:03.294447,28.15352941176471,1.7989153226262962,-4.751106870229008,8.91153921815402,24.734229150010762,1524
2025-12-08T00:39:03.317573,28.012352941176474,1.7065897056002037,-3.1022519083969464,69.95477449987419,25.23372920803939,1525
2025-12-08T00:39:03.341119,28.059411764705885,1.4246254177046258,-1.514465648854962,67.18715771170574,24.156901603914836,1524
2025-12-08T00:39:03.366105,27.91823529411765,1.8914499064006995,-0.3541603053435115,54.64549729405732,22.072901105246615,1522
2025-12-08T00:39:03.386150,28.15352941176471,1.7549539587373748,0.8481297709923666,49.775148565662946,19.04369078953814,1519
2025-12-08T00:39:03.413277,28.059411764705885,1.170411523854576,1.886297709923664,38.304951212041985,15.321924473807629,1515
2025-12-08T00:39:03.434164,28.106470588235297,1.3018663017329486,3.0504198473282442,56.36573895993744,10.851480908557791,1510
2025-12-08T00:39:03.454855,28.106470588235297,1.077547936207361,3.966450381679389,45.03335248955243,5.949281755499586,1505
2025-12-08T00:39:03.479788,28.059411764705885,0.6196582775621491,4.321412213740458,17.178997658351896,1.1988970947059039,1501
2025-12-08T00:39:03.502016,28.059411764705885,0.5997838757379246,4.424465648854962,3.8619868935633774,-3.170453315724226,1496
2025-12-08T00:39:03.531699,28.15352941176471,0.26829928214491183,4.859580152671756,14.698795939246088,-7.519814449309973,1492
2025-12-08T00:39:03.552050,28.012352941176474,-0.004082140410606748,4.863396946564886,0.1857836796659021,-11.4409376156336,1488
2025-12-08T00:39:03.574462,28.012352941176474,-0.2985958480257756,4.042786259541985,-36.082679208534564,-14.177680283711004,1485
2025-12-08T00:39:03.595531,28.106470588235297,-0.3677909674632155,3.3710305343511453,-31.854334322854896,-15.99461442168955,1484
2025-12-08T00:39:03.617397,28.059411764705885,-0.2282986462295617,3.149656488549618,-11.04146654063394,-17.417415772628228,1482
2025-12-08T00:39:03.638543,28.059411764705885,-1.0308211255061475,2.344312977099237,-36.15928225839662,-17.922842013804402,1482
2025-12-08T00:39:03.663478,28.059411764705885,-0.3301254845600581,2.260343511450382,-4.0046558757516495,-18.298074581908025,1481
2025-12-08T00:39:03.686431,27.965294117647062,-0.341040864342107,-0.19767175572519088,-90.74608984398886,-16.27161570771541,1483
2025-12-08T00:39:03.707048,28.059411764705885,-0.06936103349089301,-1.159503816793893,-46.88005276998979,-13.522831402528494,1486
2025-12-08T00:39:03.727587,28.106470588235297,-0.40704042052098544,-2.0869847328244275,-44.83687462288253,-10.158953828693429,1489
2025-12-08T00:39:03.748082,28.106470588235297,-0.07402375819982869,-2.9648473282442747,-42.80376414387006,-6.28898617619541,1493
2025-12-08T00:39:03.771464,28.106470588235297,-0.2673081191310412,-3.6709541984732823,-30.21174213986686,-2.130384831458301,1497
2025-12-08T00:39:03.793143,28.012352941176474,0.3072288216184745,-3.8694274809160305,-9.156233514554463,1.802204055541862,1501
2025-12-08T00:39:03.815078,28.106470588235297,-0.2679879999495768,-4.289274809160306,-20.07944501988912,5.744349159017448,1505
2025-12-08T00:39:03.846263,28.106470588235297,0.5602926622652945,-4.4839312977099235,-9.055952887768058,9.477730698727187,1509
2025-12-08T00:39:03.880467,28.059411764705885,0.33147542501008787,-4.121335877862596,11.188207484972825,12.484741690702727,1512
2025-12-08T00:39:03.901236,28.106470588235297,0.8204617140351352,-3.857977099236641,7.96503352003834,14.938159604871682,1514
2025-12-08T00:39:03.926973,28.106470588235297,0.8687463261506788,-3.0717175572519086,37.88758923260876,16.392152667137225,1516
2025-12-08T00:39:03.950539,28.012352941176474,0.4685182786241469,-2.8007251908396946,9.425996536955271,17.439304836544057,1517
2025-12-08T00:39:03.977838,28.059411764705885,0.7808591781045678,-2.5602671755725197,11.118443559333851,18.15162228482275,1518
2025-12-08T00:39:03.998475,28.106470588235297,0.6870945583908457,-1.4991984732824426,40.25220417396331,17.772000218155448,1517
2025-12-08T00:39:04.019162,28.106470588235297,0.9419891280437734,-0.9419465648854959,26.95207458944819,16.89482690424899,1516
2025-12-08T00:39:04.049146,28.059411764705885,0.6815935646379836,-1.4686641221374042,-25.76853203844387,16.61382030057003,1516
2025-12-08T00:39:04.069750,27.965294117647062,1.231224501181401,0.32522900763358764,59.532963538453544,14.63616921848359,1514
2025-12-08T00:39:04.090251,28.059411764705885,0.763852750195477,1.2069083969465648,42.96189910560287,12.00712738518602,1512
2025-12-08T00:39:04.111763,28.106470588235297,1.2089501494222676,2.245076335877863,50.75936281321092,8.643732880481268,1508
2025-12-08T00:39:04.135360,28.059411764705885,1.2681955058823706,2.897748091603053,26.51386715215006,4.992615612388773,1504
2025-12-08T00:39:04.157579,28.012352941176474,1.3424702444147494,3.4855343511450383,26.448325997618223,1.1416569191351578,1501
2025-12-08T00:39:04.187684,27.965294117647062,0.7247792775399393,4.61148854961832,37.50739965907095,-3.4028839178866,1496
2025-12-08T00:39:04.209244,28.059411764705885,0.8956773035107977,5.069503816793894,22.176172176983783,-7.936435230453819,1492
2025-12-08T00:39:04.232319,28.106470588235297,0.7420734980438131,5.348129770992366,11.572201909141489,-12.280654053086298,1487
2025-12-08T00:39:04.254844,28.15352941176471,1.0920814052017531,5.214541984732825,-5.974131148210796,-16.0613315061974,1483
2025-12-08T00:39:04.278321,28.059411764705885,0.29741389503957705,4.966450381679389,-11.78223448547206,-19.224684184757887,1480
2025-12-08T00:39:04.299977,28.15352941176471,-0.356434585704195,4.565687022900764,-17.330714795997814,-21.684656217727944,1478
2025-12-08T00:39:04.322232,28.012352941176474,0.03774913723122969,3.741259541984733,-36.75996344005901,-23.10545146885915,1476
2025-12-08T00:39:04.347075,28.059411764705885,-0.4052769166349767,2.367213740458016,-53.427947134708305,-23.062415231444074,1476
2025-12-08T00:39:04.370020,28.106470588235297,-0.2850299277121078,1.1611068702290075,-52.46280951433234,-21.864521066738224,1478
2025-12-08T00:39:04.390629,28.059411764705885,-0.2797009757383882,0.4053816793893129,-36.620698632558046,-20.060646307383365,1479
2025-12-08T00:39:04.411161,28.106470588235297,0.045661998614977516,-0.678587786259542,-52.76134042367913,-17.395774354334996,1482
2025-12-08T00:39:04.431676,28.059411764705885,-0.6088582350604099,-2.21293893129771,-74.84485834783005,-13.522678621369751,1486
2025-12-08T00:39:04.455415,28.059411764705885,-0.15083788653200375,-3.0373664122137405,-35.012448926875024,-9.24789233085377,1490
2025-12-08T00:39:04.477272,28.059411764705885,0.5178106715507038,-3.5717175572519086,-24.30124741169256,-4.887844379670924,1495
2025-12-08T00:39:04.498139,28.012352941176474,0.33545724679674854,-3.7892748091603057,-10.53137192609465,-0.7558899884964853,1499
2025-12-08T00:39:04.526662,28.059411764705885,0.526324910990851,-3.5640839694656488,10.864405715571728,2.744124034331213,1502
2025-12-08T00:39:04.559319,28.059411764705885,0.7717255051377211,-2.899961832061069,23.058451672595695,5.2516837743752065,1505
2025-12-08T00:39:04.581152,28.059411764705885,0.6054555726786002,-2.2854580152671753,18.92959515264543,6.9175613013354065,1506
2025-12-08T00:39:04.605852,28.059411764705885,0.3830913179586552,-1.7167557251908396,26.04960564909504,7.8716977843368845,1507
2025-12-08T00:39:04.629395,28.106470588235297,-0.4980239477902885,-3.3198091603053435,-57.89001287271628,10.272752961508857,1510
2025-12-08T00:39:04.660384,28.059411764705885,-4.653659825328399,-14.113702290076336,-499.0450636555848,22.824693362407896,1522
2025-12-08T00:39:04.681075,28.106470588235297,-1.8704190591342766,-28.041183206106872,-463.3035302573683,47.498671024020645,1547
2025-12-08T00:39:04.701829,28.059411764705885,3.378318308247234,-29.59461832061068,-75.12399389496017,71.20810112677182,1571
2025-12-08T00:39:04.731165,28.059411764705885,-1.6505006804893292,-25.480114503816793,139.96788068383304,88.55412638867543,1588
2025-12-08T00:39:04.751700,28.106470588235297,0.2836297260592472,-27.70912213740458,-108.42468871221078,106.32274237856147,1606
2025-12-08T00:39:04.772182,28.012352941176474,5.456276658534769,-26.915229007633588,38.75138639059452,121.54221355836972,1621
2025-12-08T00:39:04.797752,28.059411764705885,5.268777076255438,-31.835076335877865,-229.62594256100027,139.96921478414785,1639
2025-12-08T00:39:04.820244,28.012352941176474,8.252964197318176,-16.327442748091602,587.6471932762911,141.61781836775714,1641
2025-12-08T00:39:04.851423,28.106470588235297,10.660092930524115,-18.5831679389313,-73.78935408043819,145.28018940190177,1645
2025-12-08T00:39:04.871775,28.059411764705885,3.2448781618448845,-15.228931297709925,153.1635874455263,145.35514608480352,1645
2025-12-08T00:39:04.886356,28.106470588235297,7.130593902477728,-12.862519083969465,110.17507563427388,143.1501280780746,1643
2025-12-08T00:39:04.908188,28.106470588235297,9.898370622549066,-13.777824427480917,-65.28473537133674,142.05069585754114,1642
2025-12-08T00:39:04.929273,28.059411764705885,10.66973233798469,-12.441946564885496,63.643133867892914,139.78030545049205,1639
2025-12-08T00:39:04.945451,28.15352941176471,6.9959819369422,-8.557175572519084,186.3758708878057,134.00022461138755,1634
2025-12-08T00:39:04.968362,28.059411764705885,11.732011058499666,-8.197671755725192,22.095250817564665,128.4531793400409,1628
2025-12-08T00:39:04.990473,28.106470588235297,11.402578636627892,-7.121335877862596,47.17472729409074,122.43590790278029,1622
2025-12-08T00:39:05.014400,28.012352941176474,11.762892780766986,-1.0869847328244278,237.0684620467785,111.21857623305903,1611
2025-12-08T00:39:05.030796,28.106470588235297,14.582191866234208,1.1603816793893138,97.20173170625158,98.96359306029083,1598
2025-12-08T00:39:05.051728,28.106470588235297,11.332132410050306,6.561870229007633,388.02940824201545,82.71431278900357,1582
2025-12-08T00:39:05.072930,28.012352941176474,10.364432178247693,14.718358778625955,388.4147295535586,60.277200143529804,1560
2025-12-08T00:39:05.094012,28.059411764705885,9.322608989618573,24.359580152671757,451.1179537488376,30.81633164364904,1530
2025-12-08T00:39:05.117665,28.059411764705885,7.689643109139874,32.596221374045804,345.03158210446776,-3.6006314741418266,1496
2025-12-08T00:39:05.139586,28.059411764705885,6.545433947637203,34.08095419847329,67.85234993220138,-35.99710898297405,1464
2025-12-08T00:39:05.161560,28.059411764705885,5.151632543476689,34.12293893129771,1.9997811990324816,-65.18407518585859,1434
2025-12-08T00:39:05.189801,28.106470588235297,2.885941909382048,33.023702290076336,-51.09359399383167,-90.38213523540362,1409
2025-12-08T00:39:05.212999,28.106470588235297,1.5527541583198416,32.51606870229008,-17.163663233559088,-112.54971581039153,1387
2025-12-08T00:39:05.244006,28.15352941176471,0.38994794842911384,28.455000000000005,-176.8835654515724,-128.60609355111876,1371
2025-12-08T00:39:05.265104,28.106470588235297,-4.321604786142984,12.832862595419849,-516.5755572209753,-128.0231000242599,1371
2025-12-08T00:39:05.287829,28.059411764705885,-2.2100134877950266,0.16492366412213744,-602.0280196618706,-115.31639737075254,1384
2025-12-08T00:39:05.308824,28.106470588235297,-9.458972880010236,-1.949580152671756,-92.4033321191279,-101.86856995337502,1398
2025-12-08T00:39:05.329775,28.106470588235297,-2.048584603095416,-11.415229007633588,-454.89428893020886,-80.66448833795921,1419
2025-12-08T00:39:05.353505,28.012352941176474,-1.5683484716180431,-23.86179389312977,-519.4908737560818,-49.629786880594175,1450
2025-12-08T00:39:05.376592,28.106470588235297,-0.08341579369880381,-25.468664122137405,-69.71000009316771,-20.169819021204585,1479
2025-12-08T00:39:05.403540,28.106470588235297,0.9430086330144622,-24.823625954198473,23.542139103722835,5.696710974288336,1505
2025-12-08T00:39:05.423566,28.059411764705885,1.550967084110363,-26.419045801526718,-79.57849239886605,30.524734844839433,1530
2025-12-08T00:39:05.450922,28.81235294117647,3.133995336178147,-29.044999999999998,-96.21022369581561,55.36647429592353,1555
2025-12-08T00:39:05.471773,28.106470588235297,6.314385909990211,-26.800725190839692,108.35055088412709,75.57497630032668,1575
2025-12-08T00:39:05.494501,28.106470588235297,4.088735666208038,-23.961030534351142,129.33589593320175,91.02051432322205,1591
2025-12-08T00:39:05.517352,28.106470588235297,5.023855827461228,-26.2243893129771,-100.38824912627257,107.09856160735649,1607
2025-12-08T00:39:05.546259,28.012352941176474,8.870491966747105,-29.991564885496185,-127.77312005724549,125.18164411695092,1625
2025-12-08T00:39:05.568175,28.012352941176474,9.24564101340825,-24.106068702290074,271.69684430705536,135.80229928384819,1635
2025-12-08T00:39:05.589688,28.059411764705885,11.300009472622424,-12.983931297709924,525.9436666919979,134.65552478689045,1634
2025-12-08T00:39:05.612288,28.106470588235297,9.580148333978872,-3.972480916030534,420.3376599386053,124.95918022963157,1624
2025-12-08T00:39:05.633891,28.059411764705885,12.06800760214091,-0.9801145038167938,132.52620677064294,113.36848363715251,1613
2025-12-08T00:39:05.658744,28.059411764705885,12.167202523272618,5.348129770992366,256.4996161075489,96.86183239062963,1596
2025-12-08T00:39:05.682143,28.059411764705885,7.895290560097292,11.508435114503817,281.7994693370209,76.08363098957751,1576
2025-12-08T00:39:05.706549,28.106470588235297,5.659245109938439,11.019885496183207,-20.667133489199113,57.872302558170716,1557
2025-12-08T00:39:05.729214,27.965294117647062,5.564650554071396,6.550419847328245,-185.2419257982289,45.79239999205631,1545
2025-12-08T00:39:05.752588,28.012352941176474,3.183720021330723,5.481717557251908,-45.55810844675613,35.950041559855514,1535
2025-12-08T00:39:05.777317,28.012352941176474,4.114291364843235,0.9626335877862594,-176.16115662579483,31.44264570788156,1531
2025-12-08T00:39:05.800465,28.059411764705885,1.5469264657759512,-5.434312977099237,-276.634071191726,33.53794470112214,1533
2025-12-08T00:39:05.822214,28.15352941176471,3.9114613209457545,-10.06408396946565,-212.62788652169033,39.87323907342737,1539
2025-12-08T00:39:05.843885,28.15352941176471,3.9487217381166033,-12.247290076335878,-100.29495960471654,47.66751449954397,1547
2025-12-08T00:39:05.865184,28.106470588235297,4.432293245338085,-16.888511450381678,-215.07781873876695,59.14225951501956,1559
2025-12-08T00:39:05.886164,28.012352941176474,5.478416780116373,-20.896145038167937,-187.7874875746968,73.31830014141038,1573
2025-12-08T00:39:05.907024,28.012352941176474,8.715867808068428,-22.87706106870229,-94.48099285339106,87.97440053200769,1587
2025-12-08T00:39:05.930598,28.059411764705885,7.7753994442742185,-23.63278625954198,-31.48457617346419,101.87876982189921,1601
2025-12-08T00:39:05.951747,28.059411764705885,9.560520054184046,-23.239656488549617,18.88975691643306,114.01418667109553,1614
2025-12-08T00:39:05.973390,28.059411764705885,12.055917835560699,-20.70530534351145,122.80029510683852,122.49202315803625,1622
2025-12-08T00:39:06.001324,28.15352941176471,14.771805839378043,-14.72820610687023,276.5953334360275,124.36684493217733,1624
2025-12-08T00:39:06.024714,28.059411764705885,15.398429039253543,-6.182404580152673,305.8283094718312,117.83731935532083,1617
2025-12-08T00:39:06.054780,28.106470588235297,15.672549168153878,2.3786641221374047,306.30411163014344,103.7346322247134,1603
2025-12-08T00:39:06.076139,28.106470588235297,16.10373312372396,8.878664122137405,253.15692901979716,84.79784483788062,1584
2025-12-08T00:39:06.097585,28.012352941176474,15.398299910486443,13.561870229007635,219.63693610714427,63.252129975327684,1563
2025-12-08T00:39:06.121709,28.059411764705885,12.81640663690788,15.569503816793892,83.1847471824619,41.951420762019154,1541
2025-12-08T00:39:06.145774,28.15352941176471,12.822626382811723,15.703091603053434,5.5536503742644046,22.662288520593485,1522
2025-12-08T00:39:06.176599,28.106470588235297,12.759749450747158,13.496984732824428,-70.23212804727893,7.440967321291098,1507
2025-12-08T00:39:06.197640,28.15352941176471,12.174347637888232,10.664923664122139,-135.17524971496204,-3.5449324979458137,1496
2025-12-08T00:39:06.219026,28.059411764705885,10.998535578933254,8.13057251908397,-120.30556882916089,-10.990609343572206,1489
2025-12-08T00:39:06.247058,28.012352941176474,10.302319498041472,6.355763358778626,-61.408224184398534,-15.980490629888235,1484
2025-12-08T00:39:06.268387,28.059411764705885,8.747402740132454,4.844312977099237,-72.16339835034425,-19.02354243247027,1480
2025-12-08T00:39:06.290757,28.059411764705885,8.755864596722919,2.1801908396946565,-119.42009337826845,-19.200208422385725,1480
2025-12-08T00:39:06.313011,28.059411764705885,9.379580035910205,0.4664503816793893,-82.4098101168887,-17.713620238067005,1482
2025-12-08T00:39:06.344030,28.012352941176474,8.970179329302972,0.0885877862595419,-16.92641051146335,-16.016627813474745,1483
2025-12-08T00:39:06.366154,28.012352941176474,7.96043901877816,0.07713740458015261,-0.3686849910903184,-14.482649403662945,1485
2025-12-08T00:39:06.393538,28.012352941176474,7.148936111902818,0.5046183206106871,17.062234534239284,-13.51450533114138,1486
2025-12-08T00:39:06.414370,27.965294117647062,7.61020910679041,0.6534732824427482,6.126114525163725,-12.787411882136299,1487
2025-12-08T00:39:06.440785,28.059411764705885,6.468642327079666,-0.10606870229007637,-35.39879533237949,-11.402275313088095,1488
2025-12-08T00:39:06.463374,28.106470588235297,6.347648188154048,-1.9839312977099233,-70.26976005620497,-8.350826216870939,1491
2025-12-08T00:39:06.487868,28.059411764705885,6.490864847627259,-3.071717557251908,-42.8746535689704,-4.55939482424171,1495
2025-12-08T00:39:06.510980,27.965294117647062,5.1165940858877885,-3.8388931297709923,-33.304017600437646,-0.41010636750144236,1499
2025-12-08T00:39:06.532183,28.15352941176471,4.809337192234166,-6.945763358778626,-148.49984306919083,6.313823165525814,1506
2025-12-08T00:39:06.553640,28.059411764705885,5.296080141623772,-10.350343511450381,-160.41884776525296,15.637814764378351,1515
2025-12-08T00:39:06.577627,28.106470588235297,5.268162222016649,-12.720572519083971,-98.5737757690261,26.301471638430215,1526
2025-12-08T00:39:06.600311,28.012352941176474,6.092111607041691,-14.865610687022901,-95.39855335057023,37.95997889456704,1537
2025-12-08T00:39:06.623380,28.106470588235297,6.272164185433163,-17.903778625954192,-132.337057480697,51.37041598607694,1551
2025-12-08T00:39:06.654839,28.059411764705885,6.747537157519738,-21.758740458015268,-178.492060937243,67.14644668454847,1567
2025-12-08T00:39:06.683924,27.965294117647062,8.311889639612781,-23.56790076335878,-56.814677338600696,83.06414246599395,1583
2025-12-08T00:39:06.707551,28.059411764705885,9.177084156202088,-26.972480916030534,-107.8643987149173,100.66241532441937,1600
2025-12-08T00:39:06.727914,28.106470588235297,11.835326629591426,-27.083167938931297,-5.318840842077818,116.61918588184876,1616
2025-12-08T00:39:06.750793,28.106470588235297,12.36744894634667,-23.38851145038168,161.8231917519435,127.41305600118366,1627
2025-12-08T00:39:06.773055,28.012352941176474,11.860387274370959,-17.56408396946565,263.5689954461363,131.52130380085222,1631
2025-12-08T00:39:06.801000,28.059411764705885,13.990439121409779,-14.22057251908397,158.23642821305145,132.0046903468804,1632
2025-12-08T00:39:06.822023,28.059411764705885,15.481488763689715,-6.55645038167939,277.88672220026604,125.0721589413307,1625
2025-12-08T00:39:06.843802,28.106470588235297,14.332276666283446,0.36339694656488536,322.06956876332185,112.17696999881005,1612
2025-12-08T00:39:06.873683,28.106470588235297,13.767592437612063,7.4664503816793895,235.43274171715944,93.7622081477488,1593
2025-12-08T00:39:06.895759,28.059411764705885,13.690488492444587,10.096221374045802,125.72876691135671,74.65304153074742,1574
2025-12-08T00:39:06.919245,28.012352941176474,14.212019253251881,13.073320610687022,120.74281053058218,54.6116914905405,1554
2025-12-08T00:39:06.941626,28.012352941176474,13.259307668788193,14.12675572519084,47.07214738724574,35.56536392195182,1535
2025-12-08T00:39:06.972306,28.012352941176474,12.937312097147444,9.825229007633588,-141.51073153894077,22.581726826658166,1522
2025-12-08T00:39:06.993957,28.106470588235297,12.224312848158089,5.527519083969465,-202.4699755550278,15.022694590322303,1515
2025-12-08T00:39:07.015733,27.965294117647062,9.700292512772393,2.4206488549618324,-134.3931007601624,11.210097242877264,1511
2025-12-08T00:39:07.036885,28.106470588235297,8.956051013389063,-0.02209923664122137,-114.71983083196793,10.125613530173787,1510
2025-12-08T00:39:07.059078,28.059411764705885,10.040363600424158,-4.151870229007634,-204.95681128780674,13.121020503632542,1513
2025-12-08T00:39:07.080421,28.012352941176474,12.400468675472958,-6.9114122137404586,-121.91106039258936,18.465166530660202,1518
2025-12-08T00:39:07.101043,28.106470588235297,11.59301042172962,-9.87324427480916,-140.4407169787092,26.12046989778527,1526
2025-12-08T00:39:07.125894,28.059411764705885,12.30659906945045,-13.777824427480917,-158.2853733404703,36.75729519368209,1536
2025-12-08T00:39:07.148604,28.059411764705885,13.873339159573653,-17.304541984732822,-155.17409266361642,49.71976891715024,1549
2025-12-08T00:39:07.169165,28.012352941176474,15.494329323814238,-18.155687022900768,-41.39373218041787,62.200373387645016,1562
2025-12-08T00:39:07.189689,28.059411764705885,15.430501264311507,-19.4037786259542,-60.78582911116375,74.62717152898796,1574
2025-12-08T00:39:07.212810,28.15352941176471,15.789594476786094,-21.037366412213743,-70.706717847143,87.373803275071,1587
2025-12-08T00:39:07.234459,28.15352941176471,16.9925896910507,-21.606068702290077,-26.270515761099766,99.39098621702612,1599
2025-12-08T00:39:07.256323,28.012352941176474,17.318767682448065,-20.774007633587786,37.98879977252213,109.40124179391337,1609
2025-12-08T00:39:07.284545,28.15352941176471,20.121602414994367,-18.266374045801527,122.8210146293719,125.57144670921224,1625
2025-12-08T00:39:07.308221,28.15352941176471,20.928444784433207,-13.045,183.0800037268143,187.2168270634602,1687
2025-12-08T00:39:07.342123,28.15352941176471,21.119923458121075,-7.919045801526717,218.1680842488689,196.049984122441,1696
2025-12-08T00:39:07.363279,28.059411764705885,20.002948106909777,-2.2587404580152675,166.26077666786733,103.8810855057969,1603
2025-12-08T00:39:07.384046,28.012352941176474,24.636803231970255,1.435916030534351,176.1247526714434,442.80621346714673,1942
2025-12-08T00:39:07.407339,28.059411764705885,24.97241524145052,14.283244274809162,620.8233031588052,462.11365231527407,1950
2025-12-08T00:39:07.423594,28.059411764705885,22.634708073676553,23.22145038167939,344.43697460443235,256.1135501498019,1756
2025-12-08T00:39:07.451540,28.15352941176471,15.42533388061278,28.027519083969466,337.1316572557001,8.728235877578546,1508
2025-12-08T00:39:07.473107,28.059411764705885,19.354821344179523,38.81759541984733,381.2869989121519,-29.43639368922015,1470
2025-12-08T00:39:07.494240,28.106470588235297,22.412958310707687,57.94736641221374,925.605064225257,145.74747353456542,1645
2025-12-08T00:39:07.523551,28.20058823529412,11.778463176848454,67.67637404580154,326.6473134567768,-139.00377130501926,1360
2025-12-08T00:39:07.545239,28.106470588235297,10.369605439673137,53.57713740458015,-681.0605164254455,-176.56811161867472,1323
2025-12-08T00:39:07.568357,28.15352941176471,5.437849767996944,39.90156488549618,-565.1350140307987,-197.190113966246,1302
2025-12-08T00:39:07.583482,28.059411764705885,7.920254421845746,25.7481679389313,-637.6948300755698,-202.1386002399072,1297
2025-12-08T00:39:07.614087,28.106470588235297,5.794270471451174,16.172557251908398,-688.7608417996794,-197.38351514497307,1302
2025-12-08T00:39:07.635753,28.106470588235297,2.008111303913358,-5.403778625954198,-695.205739071263,-172.38379263155153,1327
2025-12-08T00:39:07.656787,28.059411764705885,2.700111766473463,-15.781641221374047,-497.03012920685865,-139.89616809246706,1360
2025-12-08T00:39:07.671494,28.059411764705885,0.16410073225389293,-13.77854961832061,84.29053838567167,-112.62774907466849,1387
2025-12-08T00:39:07.694065,28.106470588235297,5.275583407174949,-20.006832061068703,-516.7816016369553,-82.03423399566141,1417
2025-12-08T00:39:07.713532,28.012352941176474,-0.6291123485100258,-25.045725190839693,-224.65028603680977,-49.75433280469985,1450
2025-12-08T00:39:07.739173,28.106470588235297,5.8322611915125115,-46.96866412213741,-962.8022957289511,0.38566381138769174,1500
2025-12-08T00:39:07.759925,28.059411764705885,11.012520563770936,-48.98393129770992,-90.15864212955834,47.42854577484718,1547
2025-12-08T00:39:07.780537,28.106470588235297,10.64090973783522,-43.93812977099237,243.0868292333917,84.89903572753873,1584
2025-12-08T00:39:07.805564,28.15352941176471,11.113342220221373,-44.85034351145038,-36.49154250835039,119.47269854541359,1619
2025-12-08T00:39:07.828356,28.106470588235297,18.855420026014727,-45.07553435114504,-9.863396404497104,150.8101871155044,1650
2025-12-08T00:39:07.849025,28.106470588235297,17.845033072742602,-38.34270992366412,326.3966576992446,172.5356990705823,1672
2025-12-08T00:39:07.869666,28.106470588235297,18.135805788202163,-34.53736641221374,183.92642733700188,188.42579270901797,1688
2025-12-08T00:39:07.891052,28.059411764705885,21.574181184895057,-25.831984732824427,370.9880736772571,299.2971518716946,1799
2025-12-08T00:39:07.912936,27.965294117647062,24.151318327227948,-13.010648854961833,648.3167810901118,471.1284418933298,1950
2025-12-08T00:39:07.936446,28.106470588235297,22.970290139426247,-3.5564503816793898,460.74761193161424,380.8223164060014,1880
2025-12-08T00:39:07.962851,28.012352941176474,25.000405063305607,4.409198473282443,338.7683689906192,519.002906728245,1950
2025-12-08T00:39:07.979391,28.059411764705885,25.030694424740673,22.274885496183206,634.3897946402029,508.74229140177073,1950
2025-12-08T00:39:08.014555,28.059411764705885,17.343436503950162,41.00080152671756,673.1533323380102,63.14644631810853,1563
2025-12-08T00:39:08.035928,28.059411764705885,17.69369517209503,48.401564885496185,325.258567179532,10.274414766255392,1510
2025-12-08T00:39:08.056778,28.106470588235297,15.724373554612065,51.41301526717558,143.88001072674425,-40.18843606089921,1459
2025-12-08T00:39:08.077531,28.059411764705885,10.585578485400099,52.01225190839694,28.86653850648687,-86.15526010584519,1413
2025-12-08T00:39:08.100983,28.059411764705885,12.423055877589992,51.111488549618315,-38.203668194701585,-126.62487736688975,1373
2025-12-08T00:39:08.124056,28.106470588235297,6.222494268827946,47.32141221374046,-163.96497582182784,-159.39421080823578,1340
2025-12-08T00:39:08.151286,28.059411764705885,4.318970972470153,43.13057251908398,-193.90898625088468,-184.85531776152868,1315
2025-12-08T00:39:08.171948,28.059411764705885,2.6709489590543294,27.199274809160308,-606.2594649687319,-192.43151526394004,1307
2025-12-08T00:39:08.192607,28.059411764705885,5.873459236476764,15.298511450381678,-575.5796609715948,-187.81255582707308,1312
2025-12-08T00:39:08.220618,28.012352941176474,-2.5150513187698547,-2.2701908396946564,-628.0018262632423,-166.7776705099574,1333
2025-12-08T00:39:08.241582,28.20058823529412,5.38580887887542,-8.580076335877862,-296.72924371498476,-141.78339492773546,1358
2025-12-08T00:39:08.263454,28.059411764705885,3.0354866631448116,-6.690038167938932,92.40895539993625,-121.1316960236219,1378
2025-12-08T00:39:08.287449,28.012352941176474,4.936052919834404,-12.193854961832061,-221.63988703163707,-97.275274552789,1402
2025-12-08T00:39:08.309957,28.059411764705885,3.2759529389430124,-16.02973282442748,-182.01278211864403,-72.11462530106803,1427
2025-12-08T00:39:08.329336,28.106470588235297,15.744840606652858,-21.12969465648855,-224.93890712607342,-44.580591890711446,1455
2025-12-08T00:39:08.350131,28.059411764705885,7.825307531346835,-20.976297709923667,8.078366563267574,-19.947469496727464,1480
2025-12-08T00:39:08.370881,28.012352941176474,7.803143227725775,-23.136603053435113,-102.84410859338327,4.282878547159142,1504
2025-12-08T00:39:08.391867,28.106470588235297,8.96303398223233,-23.911412213740455,-37.11537546460486,26.82845760782913,1526
2025-12-08T00:39:08.413509,28.106470588235297,12.07916447337524,-23.15950381679389,36.455962419042905,46.39011783291656,1546
2025-12-08T00:39:08.433906,28.012352941176474,9.257458401400038,-21.915229007633585,57.52021700587786,62.79183649369672,1562
2025-12-08T00:39:08.457563,28.012352941176474,9.416253975445104,-27.62133587786259,-242.65831418983268,83.04103264880462,1583
2025-12-08T00:39:08.479954,28.059411764705885,11.568950243412576,-37.92667938931298,-460.16483920591065,111.18272059260967,1611
2025-12-08T00:39:08.503470,28.106470588235297,15.32988322109447,-38.606068702290074,-32.46221064896844,137.15696179392225,1637
2025-12-08T00:39:08.525011,28.059411764705885,18.940731637567424,-30.537366412213743,348.3181380205468,152.75166196738425,1652
2025-12-08T00:39:08.546323,28.106470588235297,19.582635757819084,-14.529732824427482,717.5394255462297,151.38259773793595,1651
2025-12-08T00:39:08.567628,28.059411764705885,21.36589539511071,4.60385496183206,898.4280300728749,235.82109073095117,1735
2025-12-08T00:39:08.591501,28.059411764705885,22.588354786695835,23.47790076335878,790.9072233697669,302.6326004651062,1802
2025-12-08T00:39:08.613177,28.059411764705885,21.246958451948032,36.82904580152672,615.8582728990845,155.48385554579318,1655
2025-12-08T00:39:08.633910,27.965294117647062,17.556194872872,50.03896946564886,638.1318460383081,-2.34548752521912,1497
2025-12-08T00:39:08.654500,28.15352941176471,18.452021067150532,62.901564885496185,623.6303207741082,-62.60305578761283,1437
2025-12-08T00:39:08.675070,28.012352941176474,11.38071778533488,76.76034351145039,671.4325554844373,-130.13995071930262,1369
2025-12-08T00:39:08.696756,28.012352941176474,8.772668587747939,80.02370229007634,147.93319404081058,-194.01556946903665,1305
2025-12-08T00:39:08.717358,28.059411764705885,3.0876815848053445,74.12293893129771,-286.3840427532504,-245.80974721101944,1254
2025-12-08T00:39:08.738156,28.012352941176474,2.5970601660882524,59.55041984732825,-726.5566131824007,-278.38343775810205,1221
2025-12-08T00:39:08.765476,27.965294117647062,2.177262021987849,43.75652671755726,-761.0885824718921,-292.4949824713653,1207
2025-12-08T00:39:08.787247,28.012352941176474,8.913756815063095,28.909198473282444,-537.4211074275503,-290.9205607489715,1209
2025-12-08T00:39:08.818634,28.012352941176474,0.7783279765877111,13.203091603053434,-704.6108999628743,-274.41026160013854,1225
2025-12-08T00:39:08.833948,28.15352941176471,3.5249939673609427,-2.6411450381679384,-516.0994456663019,-244.35336185201055,1255
2025-12-08T00:39:08.859495,28.012352941176474,0.23908581273112756,-12.743473282442748,-661.7249818730156,-207.5392087406889,1292
2025-12-08T00:39:08.883598,28.012352941176474,3.7138872695111393,-31.090801526717556,-717.9708745255759,-156.8532615166843,1343
2025-12-08T00:39:08.904852,28.012352941176474,-0.042222763679208075,-38.44194656488549,-305.5852151496354,-104.18342102243193,1395
2025-12-08T00:39:08.927871,27.965294117647062,-3.0495795941198542,-41.81217557251909,-139.5064001463935,-53.564822344140346,1446
2025-12-08T00:39:08.946433,28.012352941176474,-0.1491832658178122,-44.6106106870229,-137.77040699685213,-5.312938755428936,1494
2025-12-08T00:39:08.966791,28.15352941176471,9.644330487197703,-45.60606870229008,-53.880496254625484,39.06177049158154,1539
2025-12-08T00:39:08.993964,28.15352941176471,12.48346707052712,-43.30454198473282,113.20468046811156,76.75049498388013,1576
2025-12-08T00:39:09.015709,28.106470588235297,11.165001222059553,-34.7243893129771,314.42997773564673,102.38254382662328,1602
2025-12-08T00:39:09.038897,28.012352941176474,11.311291298495414,-31.537366412213743,131.90849336639118,122.40014992319126,1622
2025-12-08T00:39:09.061042,28.106470588235297,16.385450523092683,-36.094618320610685,-205.27180468219817,144.81289508848923,1644
2025-12-08T00:39:09.091669,28.106470588235297,22.113023854194623,-18.18240458015267,859.1897456652182,304.388565380627,1804
2025-12-08T00:39:09.112237,28.059411764705885,21.250501898290224,4.44736641221374,744.7148281512902,223.21363013096374,1723
2025-12-08T00:39:09.133836,28.20058823529412,14.891313866759724,17.351946564885495,628.2731532521387,99.00622236303883,1599
2025-12-08T00:39:09.154407,28.059411764705885,20.462591210575,26.065687022900764,404.5210955075903,101.65745665532367,1601
2025-12-08T00:39:09.176541,28.059411764705885,16.655670671913477,47.28251908396946,898.8873088996838,12.107778588646106,1512
2025-12-08T00:39:09.199066,28.106470588235297,14.588624429565233,62.44354961832062,787.9895787351909,-49.184803955036365,1450
2025-12-08T00:39:09.219754,28.012352941176474,12.945182765714598,63.18782442748091,33.115669419417834,-104.99329964413681,1395
2025-12-08T00:39:09.243166,28.106470588235297,7.623202082672055,64.87866412213742,72.14396141133004,-156.81915488515264,1343
2025-12-08T00:39:09.264956,28.059411764705885,1.4629069416510023,69.3137786259542,213.29639507661392,-207.73196464182155,1292
2025-12-08T00:39:09.286523,28.106470588235297,1.8144672377722932,62.27179389312976,-313.9679904418271,-246.74675810693614,1253
2025-12-08T00:39:09.311967,28.106470588235297,4.626866284803319,47.09167938931297,-706.1578344329974,-267.2478529127784,1232
2025-12-08T00:39:09.323866,28.106470588235297,-0.7182106974477972,40.64893129770992,-251.2747839617923,-279.5011959653455,1220
2025-12-08T00:39:09.338136,28.106470588235297,2.696928814285834,40.56496183206107,-7.452568150341344,-290.4947064325896,1209
2025-12-08T00:39:09.359778,28.012352941176474,-5.081456431406038,26.264160305343513,-978.849000403368,-286.59132659989933,1213
2025-12-08T00:39:09.380232,28.106470588235297,-10.249007862044522,8.687099236641222,-824.537394854184,-266.1843396933963,1233
2025-12-08T00:39:09.401950,28.012352941176474,-3.5928413951378655,-6.075534351145039,-710.4873563716151,-233.6333236979726,1266
2025-12-08T00:39:09.416618,28.106470588235297,4.986599535115614,-17.534274809160305,-470.6691698218177,-193.35626358048918,1306
2025-12-08T00:39:09.436558,28.012352941176474,0.41994891468946133,-23.549541984732823,-466.89106139332523,-151.25319465400472,1348
2025-12-08T00:39:09.457328,28.15352941176471,0.03778869402840623,-34.403778625954196,-583.4418577626731,-103.01480436101079,1396
2025-12-08T00:39:09.477960,28.059411764705885,-0.29926876718208917,-35.392328244274815,-48.07501354637463,-58.69068175461622,1441
2025-12-08T00:39:09.499764,28.012352941176474,3.6601925487656337,-34.06790076335877,64.18537304488957,-20.090207857382666,1479
2025-12-08T00:39:09.525969,28.106470588235297,0.8989623318871516,-28.838893129770995,240.14593151703488,9.602413810042199,1509
2025-12-08T00:39:09.553823,28.106470588235297,5.342954867080569,-23.815992366412214,161.29273190594478,31.472874356363267,1531
2025-12-08T00:39:09.584153,28.15352941176471,4.070190562627497,-10.575534351145038,570.1577587243297,38.43693976779127,1538
2025-12-08T00:39:09.606072,28.059411764705885,2.8834023615315445,-3.5831679389312976,231.96562932314936,37.98889905624769,1537
2025-12-08T00:39:09.630597,28.20058823529412,3.0770827031762,-3.495381679389313,4.013322355899329,37.515601189293655,1537
2025-12-08T00:39:09.654327,28.15352941176471,3.720936948313449,-2.9877480916030534,18.328996830225016,36.61157849609084,1536
2025-12-08T00:39:09.685393,28.106470588235297,5.2787558849874685,-5.1327862595419855,-98.80669223268025,37.86924986872061,1537
2025-12-08T00:39:09.706110,28.106470588235297,6.810205322831531,0.06950381679389314,173.02069649467046,33.99947456520664,1533
2025-12-08T00:39:09.726796,28.012352941176474,4.734320836817776,2.7679770992366413,130.256148810509,27.92122111850517,1527
2025-12-08T00:39:09.755790,28.059411764705885,5.256258638431625,4.966450381679389,75.9297877377081,20.347770560521745,1520
2025-12-08T00:39:09.777360,28.012352941176474,5.266597147079717,11.218358778625953,303.68282295995925,7.511796530395873,1507
2025-12-08T00:39:09.800387,28.059411764705885,2.662857640081834,16.82141221374046,233.04915099130815,-9.416889419531653,1490
2025-12-08T00:39:09.822653,28.106470588235297,2.162256489740119,17.359580152671757,24.20658601090951,-25.163718725916404,1474
2025-12-08T00:39:09.853027,28.106470588235297,2.0900378903758767,16.119122137404577,-58.94454343375425,-38.1356492334225,1461
2025-12-08T00:39:09.873448,28.059411764705885,1.829492298171481,17.63820610687023,50.724868197865206,-51.25662178000768,1448
2025-12-08T00:39:09.894485,28.012352941176474,0.9999679082486934,19.126755725190844,73.06187677956126,-64.50858606462833,1435
2025-12-08T00:39:09.917427,28.059411764705885,-0.031393238638727006,15.775610687022901,-140.6036095728385,-73.19955209470056,1426
2025-12-08T00:39:09.938692,28.15352941176471,0.9337906143203685,11.95118320610687,-179.52983783720055,-77.3427027843472,1422
2025-12-08T00:39:09.962501,28.012352941176474,-1.25556358231436,9.44736641221374,-124.78040913824687,-78.66446716874562,1421
2025-12-08T00:39:09.983872,28.012352941176474,-2.146855083489502,2.851946564885496,-267.2256167632172,-73.51102691102153,1426
2025-12-08T00:39:10.005143,28.15352941176471,-0.35390735745410506,-4.209122137404581,-331.9614049306187,-62.08189722247477,1437
2025-12-08T00:39:10.028716,28.012352941176474,0.9623084866664035,-10.224389312977099,-255.07895233618962,-46.0218744668816,1453
2025-12-08T00:39:10.051602,28.106470588235297,1.0928984691757484,-12.266374045801527,-89.42899972668589,-29.613451867719785,1470
2025-12-08T00:39:10.072216,28.059411764705885,2.360913140492858,-13.312175572519084,-50.548648551645066,-13.845243407689887,1486
2025-12-08T00:39:10.092794,28.012352941176474,2.6414226925470614,-12.999198473282444,14.911523947981895,0.035149805542513846,1500
2025-12-08T00:39:10.114679,28.106470588235297,3.1513916739042456,-13.140419847328246,-6.453330290521481,12.656366525640095,1512
2025-12-08T00:39:10.135372,28.106470588235297,4.638707636250497,-10.06408396946565,148.50253058952444,21.052192316494963,1521
2025-12-08T00:39:10.156180,28.059411764705885,4.349037482272051,-6.55263358778626,175.0281101130092,25.228280629591172,1525
2025-12-08T00:39:10.184195,28.012352941176474,4.834068392826426,-3.510648854961832,146.70248738472645,26.060915582286146,1526
2025-12-08T00:39:10.206205,28.059411764705885,6.08799940273569,1.4473664122137404,172.44732786446284,22.045358606879763,1522
2025-12-08T00:39:10.235182,28.059411764705885,4.344766212401687,7.863396946564886,212.36748160759439,12.26731526212687,1512
2025-12-08T00:39:10.257001,28.059411764705885,3.622704971188337,12.058053435114504,201.57034575518276,-0.5705630398704992,1499
2025-12-08T00:39:10.278947,28.059411764705885,2.8554527711152025,14.920648854961831,124.49163170560759,-14.864502891944946,1485
2025-12-08T00:39:10.300985,28.106470588235297,0.7297474107020865,16.458816793893135,69.92406588556138,-29.201741189182503,1470
2025-12-08T00:39:10.330645,28.106470588235297,-0.9881538735583619,17.50843511450382,50.722611247444185,-43.1098468554297,1456
2025-12-08T00:39:10.351319,28.106470588235297,-0.05187260586992387,14.500801526717556,-102.87572142082861,-52.71645137641998,1447
2025-12-08T00:39:10.372004,28.106470588235297,0.17981923455220553,13.10385496183206,-67.54298156597841,-60.02551422051313,1439
2025-12-08T00:39:10.401067,27.965294117647062,-0.9499458754378063,9.164923664122139,-135.80826385293804,-62.80866775505691,1437
2025-12-08T00:39:10.422612,28.106470588235297,-1.9377492180921174,3.252709923664122,-286.89329253725947,-59.627650169459024,1440
2025-12-08T00:39:10.445642,28.059411764705885,-2.2647849539820917,-2.3236259541984734,-232.20960334643124,-51.40703027326805,1448
2025-12-08T00:39:10.468111,28.15352941176471,0.17950668624965793,-7.480114503816795,-249.011347068313,-39.050241721750275,1460
2025-12-08T00:39:10.498268,28.012352941176474,0.08432205505914611,-13.350343511450383,-259.28038887157453,-22.29360669139568,1477
2025-12-08T00:39:10.518931,28.059411764705885,1.0812961493341091,-16.99919847328244,-121.83291376898252,-3.72452477291409,1496
2025-12-08T00:39:10.540441,28.012352941176474,2.6858327213366744,-19.02973282442748,-98.9506024299413,14.95089576613808,1514
2025-12-08T00:39:10.561013,28.15352941176471,4.354869492242843,-17.796908396946563,57.256565468729086,30.55812030375811,1530
2025-12-08T00:39:10.584583,28.106470588235297,4.626802384588541,-17.926679389312977,-5.499858460142049,44.72017781518407,1544
2025-12-08T00:39:10.607165,28.012352941176474,5.722992740085999,-16.922862595419847,44.58093638310431,56.49848624228705,1556
2025-12-08T00:39:10.630471,28.059411764705885,7.542483433970782,-13.522099236641221,162.4601118324653,63.825612473121666,1563
2025-12-08T00:39:10.651058,28.012352941176474,6.484054104515471,-10.606068702290077,126.81942031844156,67.61315602229192,1567
2025-12-08T00:39:10.671682,28.106470588235297,6.1020524096666495,-8.686221374045802,93.03137076856923,69.17851202866248,1569
2025-12-08T00:39:10.694326,28.012352941176474,7.466083868068823,-5.774007633587787,134.70719639659907,67.78787812492709,1567
2025-12-08T00:39:10.718046,28.012352941176474,9.19141587937683,1.8977480916030534,309.78498065091156,59.15986069784193,1559
2025-12-08T00:39:10.740908,28.106470588235297,7.148960293190869,6.886297709923665,218.23722157309635,46.60110459013668,1546
2025-12-08T00:39:10.761573,28.15352941176471,6.071375162201964,8.264160305343513,66.96222229789522,33.979285617376256,1533
2025-12-08T00:39:10.782554,28.106470588235297,5.186029569346126,8.859580152671757,28.49612441182861,22.056575995415333,1522
2025-12-08T00:39:10.803209,28.012352941176474,5.386165192371049,11.516068702290076,128.42314576386062,8.7751918662898,1508
2025-12-08T00:39:10.826734,28.106470588235297,3.685381495003059,13.149656488549617,69.17270336344728,-4.738783539199524,1495
2025-12-08T00:39:10.848557,28.106470588235297,2.21042070965068,11.046603053435115,-96.055203962872,-14.874832339535304,1485
2025-12-08T00:39:10.870702,28.15352941176471,1.9090340682731908,8.512251908396948,-114.58395741075326,-21.555541773808162,1478
2025-12-08T00:39:10.898963,28.106470588235297,1.5414755331726653,6.760343511450381,-85.50193619905247,-25.883707502466923,1474
2025-12-08T00:39:10.922160,28.106470588235297,-0.9174398998103706,4.653473282442748,-68.61550943416802,-27.750668566206354,1472
2025-12-08T00:39:10.955159,28.15352941176471,-0.3841713621297854,1.6572900763358775,-143.83051063952107,-26.551803841310516,1473
2025-12-08T00:39:10.977150,28.012352941176474,0.07629029759248926,-2.7587404580152675,-133.2549715416851,-21.231955128789192,1478
2025-12-08T00:39:10.997664,28.106470588235297,0.14671249714107387,-4.961030534351146,-100.95935291591573,-14.325020869348101,1485
2025-12-08T00:39:11.021034,28.106470588235297,0.8901951885083605,-6.606068702290076,-70.39237462062387,-6.533683636504146,1493
2025-12-08T00:39:11.044568,28.15352941176471,2.5736065725510766,-7.720572519083969,-47.32972699910792,1.545352023435009,1501
2025-12-08T00:39:11.075848,28.106470588235297,4.083778809885808,-8.098435114503816,-12.089481638657823,9.170749886008275,1509
2025-12-08T00:39:11.096518,28.106470588235297,4.53862409185442,-7.3656106870229,35.439328815313104,15.333027789499544,1515
2025-12-08T00:39:11.117173,28.012352941176474,4.68173477408356,-5.869427480916031,72.37866286180252,19.435926598099375,1519
2025-12-08T00:39:11.146542,28.012352941176474,5.455351158512617,-4.804541984732825,36.128170771857576,22.10059331216892,1522
2025-12-08T00:39:11.167116,28.059411764705885,5.435304637905396,-4.125152671755726,32.54563151556827,23.848176820284944,1523
2025-12-08T00:39:11.188660,28.106470588235297,5.159023020028847,-3.140419847328244,45.63379138458589,24.473865884202603,1524
2025-12-08T00:39:11.209657,28.106470588235297,0.056577448156811094,-3.075534351145038,3.0894482481916863,24.97609518602951,1524
2025-12-08T00:39:11.236619,28.059411764705885,3.8582613148032427,-8.812175572519084,-212.87837722842167,30.94797157664941,1530
2025-12-08T00:39:11.258142,28.059411764705885,3.5263192076073717,-7.774007633587785,51.890507524653565,35.32400327714912,1535
2025-12-08T00:39:11.278713,28.20058823529412,4.963117228732172,-12.422862595419849,-214.91156038126812,43.73399788875676,1543
2025-12-08T00:39:11.299205,28.059411764705885,4.972261809954258,-17.132786259541984,-229.72093335801074,55.83312073662053,1555
2025-12-08T00:39:11.322891,28.059411764705885,6.284555454341313,-20.88469465648855,-158.49173529002485,70.32043285771407,1570
2025-12-08T00:39:11.345695,28.012352941176474,7.354736478947872,-20.170954198473282,34.310324783561015,82.66922561144422,1582
2025-12-08T00:39:11.366684,28.059411764705885,3.673033810889669,-20.503015267175574,-14.758557472738023,94.09469858309035,1594
2025-12-08T00:39:11.389698,28.059411764705885,5.858622850627235,-21.476297709923667,-41.415494305942104,105.30989773012217,1605
2025-12-08T00:39:11.411100,28.059411764705885,5.902672635287254,-20.91141221374046,27.56444065130846,114.8609182413102,1614
2025-12-08T00:39:11.432403,28.012352941176474,7.529402905551775,-17.758740458015268,141.72996233319952,120.41794662456815,1620
2025-12-08T00:39:11.457299,28.012352941176474,8.971505968315826,-10.384694656488552,297.0884743727772,118.32394424193583,1618
2025-12-08T00:39:11.480339,28.15352941176471,11.22226904296404,-4.342709923664123,261.53462679777937,110.6312826310812,1610
2025-12-08T00:39:11.500912,28.106470588235297,11.796305525560348,-0.2816412213740456,197.34176034351415,99.80587622660335,1599
2025-12-08T00:39:11.521456,28.059411764705885,8.818501145278978,7.405381679389313,374.794663188182,82.6734237966545,1582
2025-12-08T00:39:11.542018,28.106470588235297,7.433361731165854,15.11148854961832,375.03196498455634,59.849936545727516,1559
2025-12-08T00:39:11.565372,28.106470588235297,5.522808596883513,24.019885496183207,380.45927508237423,30.75960238372731,1530
2025-12-08T00:39:11.587808,28.106470588235297,5.457508511000441,22.90156488549618,-49.887544650639,5.667756002686193,1505
2025-12-08T00:39:11.608866,28.15352941176471,1.398070731622934,18.657290076335876,-202.1298589678817,-12.822347667068135,1487
2025-12-08T00:39:11.638926,28.106470588235297,0.22149296935588314,8.077137404580151,-515.3212796032668,-19.27387643428353,1480
2025-12-08T00:39:11.661403,28.059411764705885,3.1238149427176727,-3.113702290076336,-370.9939510639231,-14.317254099223792,1485
2025-12-08T00:39:11.692988,28.106470588235297,2.6783739185105584,-8.613702290076336,-235.6133961127169,-4.5735280011608905,1495
2025-12-08T00:39:11.714937,28.106470588235297,0.25789273561755227,-9.67095419847328,-34.463634945184886,5.193319624688223,1505
2025-12-08T00:39:11.735481,28.059411764705885,2.7193229210718535,-14.36942748091603,-214.06036456347627,18.504573576482066,1518
2025-12-08T00:39:11.759067,28.059411764705885,2.448717603639487,-14.377061068702288,-0.32397611772338425,30.477982547187697,1530
2025-12-08T00:39:11.781521,28.059411764705885,4.854836729154156,-11.357977099236642,132.37600193882054,38.34202532238327,1538
2025-12-08T00:39:11.808818,28.106470588235297,4.447442083093198,-8.07171755725191,158.78593117969646,42.255219967789756,1542
2025-12-08T00:39:11.828865,27.965294117647062,6.70787087734237,-3.8198091603053435,159.0060129187982,41.68476485501532,1541
2025-12-08T00:39:11.856029,28.15352941176471,7.84111328344864,1.9015648854961835,210.6050520062621,35.67132146041896,1535
2025-12-08T00:39:11.876696,28.059411764705885,8.027164929410802,8.164923664122137,304.5140927161928,24.232234080907926,1524
2025-12-08T00:39:11.899811,28.059411764705885,8.560711400549819,13.78706106870229,247.418405638353,8.540358111776923,1508
2025-12-08T00:39:11.922159,28.106470588235297,9.116458486601418,17.16492366412214,150.75797903125073,-8.822561711045614,1491
2025-12-08T00:39:11.952704,28.059411764705885,9.428583491369658,21.14583969465649,190.63310077332918,-28.273905409677244,1471
2025-12-08T00:39:11.973304,28.059411764705885,10.461744627155007,23.863396946564887,89.71194336194371,-48.36663371145619,1451
2025-12-08T00:39:11.994876,28.106470588235297,9.699562374230142,27.080954198473282,156.832228377785,-69.56034144543597,1430
2025-12-08T00:39:12.015384,28.15352941176471,9.517084333257559,29.760343511450383,124.34771361051038,-91.19967602535452,1408
2025-12-08T00:39:12.039000,28.012352941176474,9.123419860306072,29.7756106870229,0.6459651932546274,-110.67583570924242,1389
2025-12-08T00:39:12.061551,28.059411764705885,6.749037973435046,27.12675572519084,-117.85281753489474,-125.65259100658706,1374
2025-12-08T00:39:12.082588,28.106470588235297,5.074863207512249,22.851946564885502,-208.25898622790592,-135.0179778023552,1364
2025-12-08T00:39:12.105775,28.106470588235297,3.972160084942362,16.32141221374046,-288.60933704726796,-137.16087462586196,1362
2025-12-08T00:39:12.127156,28.106470588235297,1.662512237243207,10.405381679389313,-274.09290328455916,-133.40238399406323,1366
2025-12-08T00:39:12.150415,28.012352941176474,1.4518588127626697,6.313778625954199,-175.98395206410285,-126.09275496291097,1373
2025-12-08T00:39:12.179539,28.012352941176474,-1.263991090440241,-3.8427099236641222,-339.3914812305769,-109.75876030117324,1390
2025-12-08T00:39:12.200561,28.059411764705885,-1.971410173213898,-6.014465648854962,-103.88444556807215,-92.96643952724261,1407
2025-12-08T00:39:12.221702,28.059411764705885,0.5626364364115394,-8.88851145038168,-138.19986932252675,-75.10033829522084,1424
2025-12-08T00:39:12.242955,27.965294117647062,0.8866055961779569,-9.770190839694658,-41.83198784318207,-58.1848167829329,1441
2025-12-08T00:39:12.266766,28.106470588235297,0.6892402340198958,-10.625152671755725,-34.84975249335326,-42.15295091134731,1457
2025-12-08T00:39:12.288648,28.106470588235297,0.17511455409955948,-11.331259541984734,-32.18739805926411,-27.04487623869358,1472
2025-12-08T00:39:12.309083,28.106470588235297,3.147623675785205,-11.419045801526718,-4.292101969342111,-13.365358322810675,1486
2025-12-08T00:39:12.330151,28.15352941176471,3.122679211512393,-10.70912213740458,33.72600962885676,-1.7425289408014966,1498
2025-12-08T00:39:12.360524,28.106470588235297,0.9995139518582872,-10.21293893129771,24.257444647724455,8.239297978391503,1508
2025-12-08T00:39:12.381888,28.012352941176474,0.598419650949801,-20.52973282442748,-338.25625668847437,27.136137987078538,1527
2025-12-08T00:39:12.414779,28.012352941176474,5.665312205800118,-24.05263358778626,-162.33744699968997,47.54368443746255,1547
2025-12-08T00:39:12.436807,28.15352941176471,5.8958793561266285,-12.747290076335878,347.57339151958115,55.01090161139034,1555
2025-12-08T00:39:12.457519,28.059411764705885,4.622480627963211,-7.144236641221374,254.76345245446416,56.34926302190159,1556
2025-12-08T00:39:12.481269,28.106470588235297,2.621414239222559,-9.125152671755725,-83.01673641411975,59.46623883605664,1559
2025-12-08T00:39:12.504958,28.012352941176474,8.090859011763367,-3.7282061068702292,226.70667272466918,57.080551500936764,1557
2025-12-08T00:39:12.531606,28.106470588235297,6.73596318397104,11.000801526717558,704.9459192513013,40.759350767996295,1540
2025-12-08T00:39:12.552347,28.059411764705885,2.601147173506003,17.699274809160304,249.0420806144871,19.652968335018038,1519
2025-12-08T00:39:12.578257,28.059411764705885,0.67196995991189,13.565687022900764,-159.44163351014393,4.6462715828909875,1504
2025-12-08T00:39:12.598742,28.059411764705885,2.582073339395171,14.29469465648855,35.529213390360134,-9.563307037996193,1490
2025-12-08T00:39:12.620715,28.059411764705885,1.4114969085368743,18.15347328244275,179.8161344097658,-26.057073707095117,1473
2025-12-08T00:39:12.642945,28.106470588235297,-1.9789820111294139,18.97026717557252,36.71033510993955,-41.67813670729214,1458
2025-12-08T00:39:12.673366,28.106470588235297,-3.3841749754962525,11.542786259541986,-245.15146655988528,-48.57749370771906,1451
2025-12-08T00:39:12.694127,28.059411764705885,-1.2132802557545692,12.058053435114504,24.719057252344893,-55.29273557639889,1444
2025-12-08T00:39:12.715841,28.059411764705885,-2.1739506078568667,14.142022900763358,100.77942934152166,-63.34340564995388,1436
2025-12-08T00:39:12.736372,28.106470588235297,-2.8788716028159804,11.638206106870228,-115.8854228983374,-68.1763565449402,1431
2025-12-08T00:39:12.760031,28.20058823529412,-5.101685614508237,4.615305343511451,-296.98221266682236,-65.7678057332341,1434
2025-12-08T00:39:12.782541,28.15352941176471,-4.103208240159059,-0.07171755725190843,-208.08026187075544,-59.09556058123409,1440
2025-12-08T00:39:12.806663,28.012352941176474,-3.4985336638331668,0.3595801526717557,17.874372170856116,-53.515348657773046,1446
2025-12-08T00:39:12.828105,28.20058823529412,-2.6731809221975356,0.4282824427480917,3.360368155568807,-48.56216595434399,1451
2025-12-08T00:39:12.849468,28.106470588235297,-2.7786666732588685,-0.8617938931297711,-57.72011665558551,-42.86783127222515,1457
2025-12-08T00:39:12.873286,28.059411764705885,-1.9345283098228263,-3.224389312977099,-99.4185386344215,-35.473577273527255,1464
2025-12-08T00:39:12.896328,28.012352941176474,0.25277515295679576,-2.8350763358778623,16.875569465995984,-29.19687339849834,1470
2025-12-08T00:39:12.916770,28.106470588235297,-0.16175405438415347,1.3557633587786262,202.66165165513507,-27.583223914940934,1472
2025-12-08T00:39:12.937380,28.106470588235297,-0.317150716021783,3.6916412213740464,111.97391753540603,-28.378099991547433,1471
2025-12-08T00:39:12.959222,28.059411764705885,-0.6367101086341208,4.378664122137404,31.504415856857786,-29.75150164923836,1470
2025-12-08T00:39:12.979834,28.012352941176474,-0.711518638527268,6.233625954198475,89.75547491504766,-32.77083742621638,1467
2025-12-08T00:39:13.000645,28.059411764705885,0.6499952979352561,8.878664122137405,132.07412192929587,-38.0315771868452,1461
2025-12-08T00:39:13.030081,28.20058823529412,0.30446477718144804,12.225992366412214,161.31666794138727,-45.98328162730029,1454
2025-12-08T00:39:13.051490,28.106470588235297,0.48420877969941967,14.756526717557254,85.43693432459983,-55.561551225042926,1444
2025-12-08T00:39:13.083858,28.15352941176471,-0.46878479881210205,16.203091603053437,67.82022406715909,-65.5774967175727,1434
2025-12-08T00:39:13.104621,28.106470588235297,1.8971866122628538,19.58858778625954,104.00117320252025,-77.83308024985973,1422
2025-12-08T00:39:13.125351,28.106470588235297,1.7413236363570113,21.10003816793893,73.50635849078648,-90.32686358948749,1409
2025-12-08T00:39:13.145931,28.106470588235297,0.6062712607751711,20.68782442748092,-19.84128507852971,-101.16673445323018,1398
2025-12-08T00:39:13.169526,28.059411764705885,-0.4322389774809938,17.424465648854962,-138.5264227453847,-107.77432515345757,1392
2025-12-08T00:39:13.193289,28.106470588235297,0.15583015283103976,13.748893129770991,-154.6394282355228,-110.18459413055739,1389
2025-12-08T00:39:13.224244,28.20058823529412,-1.0738114031269221,6.802328244274809,-224.24213532949165,-105.675017258081,1394
2025-12-08T00:39:13.244901,28.106470588235297,-0.3381502463726713,1.256526717557252,-268.19141178247423,-96.28034339404174,1403
2025-12-08T00:39:13.265626,28.20058823529412,0.4576371952096466,-5.953396946564887,-348.47443724501204,-80.89511197888082,1419
2025-12-08T00:39:13.295411,28.106470588235297,1.2779715669426608,-12.193854961832063,-209.85839145046003,-61.07217734565542,1438
2025-12-08T00:39:13.316149,28.106470588235297,1.477579978485346,-14.991564885496185,-135.5439446901935,-40.53153615578824,1459
2025-12-08T00:39:13.336685,28.059411764705885,1.8563355531381507,-16.972480916030534,-95.68771197206429,-20.15210221656909,1479
2025-12-08T00:39:13.359846,28.15352941176471,2.5527122085032388,-15.556450381679394,61.1368599581163,-3.190224666838347,1496
2025-12-08T00:39:13.382048,28.059411764705885,2.767601182925842,-13.823625954198475,78.05477616127465,10.404849253792188,1510
2025-12-08T00:39:13.412458,28.059411764705885,2.8993184153090894,-10.361793893129772,166.52494507728412,19.307892823607077,1519
2025-12-08T00:39:13.433209,28.20058823529412,2.659342585310902,-6.308358778625954,134.3575772851145,23.41574829592078,1523
2025-12-08T00:39:13.454967,28.106470588235297,2.1267760631261576,-4.178587786259541,102.48507959072558,25.071427853798735,1525
2025-12-08T00:39:13.478480,28.15352941176471,1.7408055816192203,-2.4533969465648857,69.98853677114032,24.90538958155585,1524
2025-12-08T00:39:13.500944,28.15352941176471,0.2729923124443118,-0.4686641221374045,88.24666685494452,22.85027322955027,1522
2025-12-08T00:39:13.524423,28.012352941176474,-0.41124644420272877,0.4549999999999999,44.194432212014505,20.115889643436798,1520
2025-12-08T00:39:13.544921,28.106470588235297,-1.2320344331834616,-1.3503435114503812,-78.11584578790303,19.3973093425754,1519
2025-12-08T00:39:13.566008,28.106470588235297,-1.9353122405751386,-1.3236259541984734,1.2577054685960287,18.72581261600211,1518
2025-12-08T00:39:13.586981,28.106470588235297,-2.506777672598793,-3.735839694656489,-114.71023843786372,20.44442891724224,1520
2025-12-08T00:39:13.611166,28.106470588235297,-2.246679641271394,-4.88087786259542,-47.382921604006874,23.090888497447754,1523
2025-12-08T00:39:13.633581,28.106470588235297,-2.224718420368643,-6.644236641221374,-78.71501467247718,27.16861094743973,1527
2025-12-08T00:39:13.655736,28.012352941176474,-2.166639503529528,-9.125152671755727,-113.0871709018568,33.22395583713571,1533
2025-12-08T00:39:13.676432,28.106470588235297,-1.482659144034315,-11.090801526717557,-95.86884410058177,40.56310727219821,1540
2025-12-08T00:39:13.700000,28.15352941176471,-1.2911420980660033,-13.308358778625953,-93.42965738416498,49.2949250383874,1549
2025-12-08T00:39:13.721806,28.106470588235297,-0.30190722792780667,-15.052633587786259,-80.0168302781366,58.830133536483594,1558
2025-12-08T00:39:13.742467,28.106470588235297,0.02895707650057819,-15.640419847328243,-28.423000986211104,67.97407859811308,1567
2025-12-08T00:39:13.764286,28.15352941176471,0.3614436331398271,-18.453396946564887,-134.5077420223978,78.90716767317765,1578
2025-12-08T00:39:13.792371,28.15352941176471,1.9351539062748975,-20.43431297709924,-92.56318479667513,90.64792072044037,1590
2025-12-08T00:39:13.815833,28.15352941176471,1.5102856202566697,-22.41904580152672,-65.53594880004005,103.10998064334022,1603
2025-12-08T00:39:13.845198,28.15352941176471,3.193419611036792,-23.17858778625954,-33.5879510873483,115.06257947531245,1615
2025-12-08T00:39:13.866057,28.106470588235297,3.010568596886051,-20.81599236641221,81.99041394533667,123.53696717635968,1623
2025-12-08T00:39:13.889112,28.106470588235297,3.1199096502539567,-19.651870229007635,57.408198953635,130.05042347522613,1630
2025-12-08T00:39:13.911047,28.012352941176474,4.791721574559901,-15.628969465648856,162.68723016081208,132.03779936296291,1632
2025-12-08T00:39:13.940809,28.15352941176471,3.2057502657251806,-7.663320610687023,386.83269292178716,126.16219244568326,1626
2025-12-08T00:39:13.961514,28.059411764705885,4.1344850967882305,-0.6022519083969465,239.59443978877178,114.09649877714413,1614
2025-12-08T00:39:13.982185,28.15352941176471,4.390153514942602,2.168740458015267,133.90460812033058,100.56962294837122,1600
2025-12-08T00:39:14.011863,28.059411764705885,5.46648294570183,6.2717938931297725,138.45763621023147,84.47146425135912,1584
2025-12-08T00:39:14.033491,28.15352941176471,1.5185144406932165,10.477900763358777,204.28317685740916,65.92790558676984,1565
2025-12-08T00:39:14.056597,28.106470588235297,2.8668015479933566,13.386297709923664,120.48575693424817,46.45993161110616,1546
2025-12-08T00:39:14.078879,28.059411764705885,2.9866476929101005,13.661106870229009,12.341222526476729,28.679116139502515,1528
2025-12-08T00:39:14.109434,28.106470588235297,3.3243909634892472,13.5962213740458,-3.103257727464887,12.743191637526282,1512
2025-12-08T00:39:14.130063,28.106470588235297,3.6478334092446527,14.657290076335876,34.997127394823124,-2.6013026160473705,1497
2025-12-08T00:39:14.151666,28.15352941176471,5.049031892501472,16.684007633587786,98.58706358077026,-18.375307801665063,1481
2025-12-08T00:39:14.175056,28.059411764705885,5.551267159787175,19.073320610687023,98.02996191980004,-34.85839226602154,1465
2025-12-08T00:39:14.196949,28.059411764705885,6.044952308728078,20.611488549618326,68.69922200970404,-51.17298422357965,1448
2025-12-08T00:39:14.218958,28.106470588235297,6.568682840206514,22.78324427480916,108.21250133873646,-67.94665156776624,1432
2025-12-08T00:39:14.239499,28.15352941176471,7.000394347466811,25.9931679389313,142.75530599953504,-86.12080717223147,1413
2025-12-08T00:39:14.259909,28.20058823529412,7.794762827904776,28.14583969465649,105.61545644147422,-104.5488503190257,1395
2025-12-08T00:39:14.280280,28.106470588235297,5.882103569827587,29.06950381679389,45.344321287218605,-122.01611652991336,1377
2025-12-08T00:39:14.304211,28.106470588235297,5.65938499935911,27.97026717557252,-46.79698586327265,-136.66696674725688,1363
2025-12-08T00:39:14.327312,28.012352941176474,5.246687516104243,26.798511450381678,-50.72924231986512,-148.7246909706509,1351
2025-12-08T00:39:14.347899,28.059411764705885,3.5261540436820833,24.748893129770995,-99.46686630039659,-157.60698680917042,1342
2025-12-08T00:39:14.368445,28.012352941176474,3.2228925381240185,22.844312977099236,-92.64692142178234,-163.76842186086697,1336
2025-12-08T00:39:14.389025,28.15352941176471,1.6467638911671205,19.96263358778626,-140.04726767372273,-166.5417891173521,1333
2025-12-08T00:39:14.412385,28.012352941176474,2.049780941024645,12.29851145038168,-328.0336561804642,-161.66533936369942,1338
2025-12-08T00:39:14.434092,28.059411764705885,0.33641392923099134,7.569503816793894,-218.61211309902666,-152.73286079806323,1347
2025-12-08T00:39:14.456224,28.106470588235297,-1.9583559270203423,0.5237022900763362,-334.8201797663524,-137.92094489122965,1362
2025-12-08T00:39:14.484377,28.106470588235297,-4.476855626602646,-5.823625954198473,-293.57899765418887,-118.49506556996708,1381
2025-12-08T00:39:14.510285,28.106470588235297,-5.393991490153861,-13.88469465648855,-266.85324269177096,-93.28663056064339,1406
2025-12-08T00:39:14.543005,28.059411764705885,-11.079899093296884,-21.148053435114505,-294.48752806791646,-63.60970970831224,1436
2025-12-08T00:39:14.564951,27.965294117647062,-11.445706510927424,-35.79690839694657,-456.26982542705076,-22.84303368247127,1477
2025-12-08T00:39:14.585569,28.059411764705885,-12.189381119527383,-46.392328244274815,-484.4644868945967,24.063707938224184,1524
2025-12-08T00:39:14.609074,28.15352941176471,-9.256287008744195,-52.781641221374045,-271.5774638429966,72.39139571267918,1572
2025-12-08T00:39:14.633061,28.106470588235297,-5.5425192970467,-53.972480916030534,-49.598757680073895,117.00810661593275,1617
2025-12-08T00:39:14.664105,28.15352941176471,-3.2329588170108945,-50.102251908396944,124.8810804744597,153.4034811767102,1653
2025-12-08T00:39:14.684869,28.20058823529412,1.655301163772895,-46.24729007633588,185.55701747892476,182.47902334878552,1682
2025-12-08T00:39:14.705577,28.012352941176474,4.587919006383228,-39.09461832061069,344.86084806507625,201.7543748645458,1701
2025-12-08T00:39:14.734947,28.20058823529412,4.660332819491745,-27.522099236641218,394.2418561226902,207.95811799162908,1707
2025-12-08T00:39:14.756678,28.106470588235297,6.150965943741221,-17.800725190839696,474.96037235347944,204.2007062495964,1704
2025-12-08T00:39:14.779839,28.106470588235297,8.425818247558311,-6.766374045801526,452.3248189000887,190.2189563144638,1690
2025-12-08T00:39:14.802085,28.106470588235297,12.33416907985612,0.3786641221374046,320.49089027611467,170.7743531895183,1670
2025-12-08T00:39:14.831904,28.106470588235297,6.3600449004645725,18.84812977099237,620.2186806364587,135.54082947456553,1635
2025-12-08T00:39:14.853572,28.106470588235297,6.774400018860608,22.756526717557254,189.24322297013404,100.06076032764372,1600
2025-12-08T00:39:14.876730,28.106470588235297,8.271187436191056,24.077137404580156,54.6957903329999,66.89831116426181,1566
2025-12-08T00:39:14.899182,28.20058823529412,5.0071893189534125,25.46645038167939,61.749101686986535,35.72417368056193,1535
2025-12-08T00:39:14.923512,28.15352941176471,5.966668807085813,24.48553435114504,-47.892580617586084,8.617240044272243,1508
2025-12-08T00:39:14.944901,28.059411764705885,4.773602708676248,20.65729007633588,-151.67403720631341,-12.07187176562863,1487
2025-12-08T00:39:14.966206,28.106470588235297,5.2427118287440635,16.61530534351145,-189.39074716890383,-26.809807793552928,1473
2025-12-08T00:39:14.989935,28.106470588235297,4.461366161324178,15.974083969465648,-27.14094208517064,-39.45459536659001,1460
2025-12-08T00:39:15.012557,28.012352941176474,4.77801526572838,14.523702290076336,-63.852356194782345,-49.44273179055048,1450
2025-12-08T00:39:15.033156,28.15352941176471,5.857128609458254,15.500801526717558,47.52367035392666,-59.37781541691288,1440
2025-12-08T00:39:15.053653,28.20058823529412,2.7760016396096385,15.485534351145036,-0.7432727307525504,-68.30474520801572,1431
2025-12-08T00:39:15.076834,28.012352941176474,2.218253294041758,9.126755725190842,-274.9806747631655,-70.21657649094246,1429
2025-12-08T00:39:15.098643,28.15352941176471,3.4888358778701782,3.2527099236641224,-269.0039503158353,-66.28940668435779,1433
2025-12-08T00:39:15.120576,28.059411764705885,2.9062703843914854,1.214541984732825,-99.60032551475354,-60.80116685381273,1439
2025-12-08T00:39:15.146809,28.106470588235297,1.9594289884314815,-3.7778244274809154,-226.7799771721548,-51.06558347294673,1448
2025-12-08T00:39:15.173197,28.106470588235297,1.9352551042562627,-9.083167938931298,-195.02899735707675,-37.213576466883715,1462
2025-12-08T00:39:15.195695,28.106470588235297,2.4125198854312813,-13.75874045801527,-178.5833418546436,-20.255686436338305,1479
2025-12-08T00:39:15.221180,28.059411764705885,4.699503957280772,-11.274007633587786,106.34738639374154,-7.390107226674298,1492
2025-12-08T00:39:15.241963,28.106470588235297,3.584243250073488,-7.953396946564887,135.25536487256755,0.9864369552007172,1500
2025-12-08T00:39:15.263548,28.059411764705885,3.0101771657490737,-5.415229007633588,117.57132061372198,6.083846824828769,1506
2025-12-08T00:39:15.286316,28.106470588235297,3.5280792526427494,-3.7434732824427477,74.87055113227385,9.06289383944179,1509
2025-12-08T00:39:15.316612,28.059411764705885,3.673494609608448,-0.12133587786259546,174.5043120213663,8.259676590279092,1508
2025-12-08T00:39:15.337354,28.106470588235297,2.9001751535633384,3.2030916030534353,109.84102817711772,4.344445611844161,1504
2025-12-08T00:39:15.358072,28.106470588235297,1.3886253352357336,4.600038167938932,67.4170816348579,-0.5223982688328651,1499
2025-12-08T00:39:15.386004,28.012352941176474,1.6738122678340623,4.378664122137404,-7.943383543656324,-4.680724388257225,1495
2025-12-08T00:39:15.407464,28.106470588235297,2.3706522117966666,5.0885877862595414,33.05912805731251,-9.106441935437946,1490
2025-12-08T00:39:15.428063,28.106470588235297,1.915703948594191,7.30614503816794,107.42047504109674,-15.221807091410348,1484
2025-12-08T00:39:15.449749,28.106470588235297,1.8068202865186689,8.554236641221374,60.70054386026872,-21.923011185117403,1478
2025-12-08T00:39:15.473246,28.012352941176474,2.7598459295804565,10.371030534351146,73.7861019533452,-29.695440549801283,1470
2025-12-08T00:39:15.495509,27.965294117647062,4.276308427726489,13.867213740458014,156.9405610850826,-40.05442922947951,1459
2025-12-08T00:39:15.525230,28.106470588235297,5.398658526996057,21.764160305343513,265.8900913124685,-56.96152744007573,1443
2025-12-08T00:39:15.545851,28.059411764705885,4.43587319467065,28.111488549618322,307.2964072750598,-78.29527653259954,1421
2025-12-08T00:39:15.566381,28.106470588235297,4.867906556668373,32.55423664122137,216.67464438324026,-101.75853072256407,1398
2025-12-08T00:39:15.589502,28.106470588235297,4.007502478984992,38.49316793893129,257.67482800126106,-128.5704197633941,1371
2025-12-08T00:39:15.611987,27.91823529411765,3.236914162043769,41.75270992366413,144.82378348463314,-155.82786949122874,1344
2025-12-08T00:39:15.635418,28.106470588235297,1.2250458854624817,44.68400763358779,142.8127971881015,-183.1766432685096,1316
2025-12-08T00:39:15.655961,28.059411764705885,1.1586624304594055,45.527519083969466,35.92769106953785,-208.58106743968042,1291
2025-12-08T00:39:15.676547,28.059411764705885,0.10596805946158572,42.764160305343516,-134.35458261706032,-228.7869601480796,1271
2025-12-08T00:39:15.697664,28.106470588235297,-1.888996467381307,37.61148854961832,-251.23948519228088,-242.00762690672076,1257
2025-12-08T00:39:15.720465,28.059411764705885,-2.8624943587946703,28.485534351145038,-381.45804630544217,-245.12109640943274,1254
2025-12-08T00:39:15.741145,28.059411764705885,-4.319228168324126,19.905381679389315,-415.0407532292579,-239.67420094559253,1260
2025-12-08T00:39:15.761824,28.059411764705885,-6.746832904820956,11.103854961832061,-425.3664571601421,-226.31301214466043,1273
2025-12-08T00:39:15.782413,28.106470588235297,-6.081047768802295,1.5542366412213742,-463.9155227719882,-205.11175016002028,1294
2025-12-08T00:39:15.804689,28.059411764705885,-6.076094622280036,-7.407595419847327,-411.50197669351036,-177.42794464727496,1322
2025-12-08T00:39:15.826435,28.012352941176474,-6.755054638996282,-14.308358778625953,-317.09959090218376,-145.8906072260373,1354
2025-12-08T00:39:15.848461,28.012352941176474,-4.4471568665900385,-18.270190839694656,-193.60963859193626,-113.7076440537272,1386
2025-12-08T00:39:15.880466,28.106470588235297,-3.1087272614359116,-17.87706106870229,17.842597128058213,-85.146055755424,1414
2025-12-08T00:39:15.913295,28.15352941176471,-5.617551881053991,-15.216755725190838,81.91857678225868,-62.03176947658623,1437
2025-12-08T00:39:15.935283,28.012352941176474,-4.561437797465478,-8.022099236641221,220.7439174314549,-48.14593463178322,1451
2025-12-08T00:39:15.958644,28.059411764705885,-3.5820014153418933,2.1687404580152667,413.5278551769636,-45.44182681349206,1454
2025-12-08T00:39:15.982163,28.106470588235297,-2.6127282685771096,11.863396946564885,412.1711890906564,-52.32859621942633,1447
2025-12-08T00:39:16.013248,27.965294117647062,-3.1882846929142215,19.81759541984733,367.19195308374003,-66.17079663314804,1433
2025-12-08T00:39:16.033906,28.15352941176471,-3.1545035456764783,26.443549618320613,220.20209652694984,-84.975730322879,1415
2025-12-08T00:39:16.054594,28.15352941176471,-3.549574765502873,31.737442748091603,255.7203400871933,-106.99970366170609,1393
2025-12-08T00:39:16.083290,28.012352941176474,-5.0583340540636,35.99698473282443,148.80490067409198,-130.8850128061608,1369
2025-12-08T00:39:16.104623,28.15352941176471,-6.677092808010347,35.44354961832062,-25.866095189585835,-151.85451724603737,1348
2025-12-08T00:39:16.125273,28.15352941176471,-7.930799265540749,32.531335877862595,-141.42633545361758,-167.914506131619,1332
2025-12-08T00:39:16.146867,28.106470588235297,-9.123260998760447,29.11530534351145,-166.11060847894194,-179.0745243062642,1320
2025-12-08T00:39:16.167351,28.106470588235297,-9.359631557617902,20.878664122137405,-382.0511719256184,-181.1881899673762,1318
2025-12-08T00:39:16.190957,28.106470588235297,-10.314558468650404,11.088587786259543,-414.81100641349076,-173.6758104819968,1326
2025-12-08T00:39:16.212962,28.059411764705885,-10.901121319679703,0.993167938931298,-455.0200933539109,-157.20942676202606,1342
2025-12-08T00:39:16.239894,28.059411764705885,-11.404081186417494,-8.945763358778626,-490.0305548102729,-132.83466520296392,1367
2025-12-08T00:39:16.259909,28.012352941176474,-12.00665218170883,-20.415229007633588,-425.82232612088694,-99.90139975619317,1400
2025-12-08T00:39:16.282652,28.106470588235297,-11.132543939796687,-28.39996183206107,-351.9340572758534,-62.58174887993335,1437
2025-12-08T00:39:16.303857,28.106470588235297,-8.889229060476085,-33.07171755725191,-219.97556861132315,-24.513375665951102,1475
2025-12-08T00:39:16.329112,28.059411764705885,-10.124500284533617,-34.2243893129771,-57.1364252118417,10.84173515163904,1510
2025-12-08T00:39:16.350486,28.059411764705885,-10.20681842538334,-34.590801526717556,-14.587431077514417,42.97831606393473,1542
2025-12-08T00:39:16.371854,28.20058823529412,-9.268559329253662,-34.083167938931304,22.7774702631261,71.4159094745596,1571
2025-12-08T00:39:16.395742,28.012352941176474,-10.361854734667716,-34.49919847328244,-17.41492963354044,97.399400357637,1597
2025-12-08T00:39:16.418893,28.106470588235297,-10.129258847903836,-37.968664122137405,-150.1180524346222,124.12275826685439,1624
2025-12-08T00:39:16.439444,28.059411764705885,-11.186625545897382,-41.86942748091603,-189.4531821672164,151.93139076822484,1651
2025-12-08T00:39:16.460069,28.059411764705885,-10.089061208455332,-45.74347328244274,-187.9553249994411,180.67905033398608,1680
2025-12-08T00:39:16.480705,28.106470588235297,-8.218833947222778,-48.293091603053426,-123.56003975378609,208.99645644565484,1708
2025-12-08T00:39:16.501303,28.012352941176474,-10.364885933165919,-49.20148854961832,-44.14786214343548,235.347914090607,1735
2025-12-08T00:39:16.525053,28.106470588235297,-8.405244661568199,-50.79690839694656,-67.10801631979389,260.5835437523508,1760
2025-12-08T00:39:16.546803,28.15352941176471,-6.19749720462092,-47.34652671755725,158.51853529097215,279.9768178207914,1779
2025-12-08T00:39:16.567251,28.059411764705885,-5.669832280471287,-44.277824427480915,150.02646272468706,294.4788735005002,1794
2025-12-08T00:39:16.588184,28.059411764705885,-3.098307269781832,-41.00301526717557,156.73583796776802,304.378815072376,1804
2025-12-08T00:39:16.617534,28.106470588235297,-3.366369742192433,-36.51064885496182,217.13530557882578,308.96841492952115,1808
2025-12-08T00:39:16.639505,28.059411764705885,1.479481359937253,-28.159503816793894,283.1101819238775,305.06992998921646,1805
2025-12-08T00:39:16.671470,28.059411764705885,0.8669421873093144,-21.976297709923664,263.35333231993496,295.6198474632245,1795
2025-12-08T00:39:16.692752,28.106470588235297,0.857957828261803,-13.842709923664122,265.63526194849635,279.31024344864284,1779
2025-12-08T00:39:16.713650,27.91823529411765,4.358159846605202,-7.510648854961832,301.45273738056216,258.53457433853146,1758
2025-12-08T00:39:16.737483,28.15352941176471,7.604796698281316,-0.8846946564885495,317.13966745185246,233.4756595076341,1733
2025-12-08T00:39:16.761247,28.106470588235297,10.417348863018903,5.756526717557252,245.94989558209542,204.566463429911,1704
2025-12-08T00:39:16.789159,28.106470588235297,7.645004635462681,9.848129770992367,191.58296274082758,174.6061651242391,1674
2025-12-08T00:39:16.809685,28.059411764705885,8.419440777262519,12.28324427480916,89.12089022910887,145.33263509721183,1645
2025-12-08T00:39:16.830502,28.106470588235297,7.374581188537864,10.206908396946565,-102.01700768294864,120.97299708534601,1620
2025-12-08T00:39:16.857279,28.059411764705885,8.982429729015967,9.424465648854962,-37.07874620763537,99.81445034458264,1599
2025-12-08T00:39:16.878033,28.012352941176474,7.7016642383189975,5.542786259541985,-146.51545062871085,84.52239736140268,1584
2025-12-08T00:39:16.899756,28.012352941176474,10.227746003585032,-1.7167557251908399,-350.7230840127259,77.73652727697842,1577
2025-12-08T00:39:16.920335,27.965294117647062,10.553735991832156,-7.789274809160307,-281.0574814500835,77.46956595802664,1577
2025-12-08T00:39:16.944102,28.106470588235297,11.24002469785757,-17.770190839694656,-419.8896291929222,86.82512243290567,1586
2025-12-08T00:39:16.966290,28.106470588235297,11.8175640361966,-21.777824427480915,-179.98001593004184,99.08964649153522,1599
2025-12-08T00:39:16.996224,28.106470588235297,10.75122628194398,-25.609885496183203,-128.2174691973442,113.7927465580692,1613
2025-12-08T00:39:17.018020,28.059411764705885,11.380397512380412,-29.16713740458015,-172.1832586107457,130.4529579676385,1630
2025-12-08T00:39:17.041254,28.106470588235297,11.854456692233725,-30.090801526717556,-37.897308168462445,146.31631829134707,1646
2025-12-08T00:39:17.063897,28.106470588235297,13.065080681174436,-28.289274809160304,80.11695737172897,158.8549967820377,1658
2025-12-08T00:39:17.088287,28.15352941176471,13.627915068803798,-24.590801526717556,179.1780780174963,166.57753105582623,1666
2025-12-08T00:39:17.109845,28.012352941176474,13.180687961515492,-19.522099236641218,207.37305562945733,168.64683781444398,1668
2025-12-08T00:39:17.131328,28.15352941176471,12.788708679796962,-13.762557251908396,267.6320306740615,164.97033138310331,1664
2025-12-08T00:39:17.154963,28.106470588235297,12.672993625657568,-6.0259160305343515,313.9009559411666,154.22602552032606,1654
2025-12-08T00:39:17.177642,28.059411764705885,12.37357966770163,1.2145419847328245,319.47864981292463,137.59627015064999,1637
2025-12-08T00:39:17.198265,28.012352941176474,9.021168731280806,5.932099236641221,228.8107734068989,118.0978984559006,1618
2025-12-08T00:39:17.218841,28.15352941176471,9.303017747279513,8.745076335877863,136.57072032082795,97.85624229908889,1597
2025-12-08T00:39:17.241957,28.15352941176471,7.543846778182067,9.527519083969466,33.84662645900516,78.90420865388488,1578
2025-12-08T00:39:17.264747,28.106470588235297,6.395671149777403,8.98171755725191,-25.180196081147773,62.377034774401864,1562
2025-12-08T00:39:17.286316,28.15352941176471,5.225769119923452,7.0160687022900765,-91.18742719478215,49.399822970945884,1549
2025-12-08T00:39:17.308515,28.15352941176471,4.4946366729095715,0.8710305343511451,-276.5942454492073,43.63797576593369,1543
2025-12-08T00:39:17.337215,28.106470588235297,5.714665233515733,-4.674770992366413,-257.2895630506217,43.786014830119164,1543
2025-12-08T00:39:17.360625,28.106470588235297,6.0513526383690515,-9.86942748091603,-174.65445405213362,48.90821327038511,1548
2025-12-08T00:39:17.393981,28.059411764705885,6.63775713171248,-13.625152671755727,-149.5112346203975,57.1253622968547,1557
2025-12-08T00:39:17.416851,28.059411764705885,8.209483898095202,-14.678587786259543,-34.13573487104781,65.52179173271706,1565
2025-12-08T00:39:17.440596,28.106470588235297,10.968580580093821,-10.625152671755727,159.74048082329222,69.17590135587903,1569
2025-12-08T00:39:17.464612,28.012352941176474,12.06348019718927,-3.2320229007633587,307.83085920337095,65.34863923251271,1565
2025-12-08T00:39:17.493147,28.15352941176471,12.237657132040294,5.710725190839695,402.5737785128907,53.30028354336969,1553
2025-12-08T00:39:17.514143,28.012352941176474,14.146851917611581,15.336679389312978,349.98420768440786,33.212856712546845,1533
2025-12-08T00:39:17.535461,28.059411764705885,15.136327724812428,23.71835877862595,398.9526820471517,7.065196769233557,1507
2025-12-08T00:39:17.565113,27.965294117647062,15.830722372416737,38.18400763358778,482.3190814814725,-30.3418557635096,1469
2025-12-08T00:39:17.585926,28.106470588235297,15.47580642407537,47.481717557251905,445.8071005037281,-72.97287291605507,1427
2025-12-08T00:39:17.607160,28.15352941176471,15.20963281593542,53.893931297709926,302.6305135642853,-117.48318731644463,1382
2025-12-08T00:39:17.630639,28.059411764705885,14.618189769967024,60.45118320610687,279.2562257800208,-163.81779034538056,1336
2025-12-08T00:39:17.650236,28.106470588235297,13.81413921827578,62.168015267175576,78.73811512966887,-207.16181788347694,1292
2025-12-08T00:39:17.678526,28.106470588235297,11.386874150885454,67.47408396946565,207.09892968947224,-251.24491087432054,1248
