timestamp,gyro_x,gyro_y,gyro_z,acc_x,acc_y,acc_z,temp
2025-10-15T19:59:31.292158,10.16030534351145,-7.076335877862595,-0.08396946564885496,0.9864110839843749,-1.5753846923828123,8.564059338378906,30.64764705882353
2025-10-15T19:59:31.313864,9.770992366412214,-11.648854961832061,-0.7709923664122137,1.0654197387695312,-0.3806780639648437,8.726865051269531,30.64764705882353
2025-10-15T19:59:31.336956,9.091603053435115,-6.961832061068702,0.3893129770992366,0.373495458984375,-0.5506663818359374,8.985438830566405,30.741764705882353
2025-10-15T19:59:31.354361,6.854961832061068,-10.419847328244275,0.2366412213740458,0.7589619262695312,0.9050082275390624,9.81862100830078,30.69470588235294
2025-10-15T19:59:31.374663,3.1755725190839694,-10.603053435114504,1.4809160305343512,0.4070142822265625,0.4070142822265625,10.510545288085936,30.64764705882353
2025-10-15T19:59:31.397556,1.1374045801526718,-8.282442748091603,0.1450381679389313,1.0773907470703123,0.8307879760742187,9.459490759277344,30.60058823529412
2025-10-15T19:59:31.415865,-2.183206106870229,-9.122137404580153,0.8396946564885496,0.8403647827148437,0.14604630126953125,10.237606298828124,30.64764705882353
2025-10-15T19:59:31.435366,-4.824427480916031,-6.106870229007634,0.7938931297709924,0.36391865234375,0.59376201171875,9.543287817382812,30.64764705882353
2025-10-15T19:59:31.457741,-6.625954198473282,-7.297709923664122,0.5038167938931297,0.6607996582031249,0.19393033447265623,9.916783276367187,30.64764705882353
2025-10-15T19:59:31.476797,-9.748091603053435,-6.3816793893129775,0.4351145038167939,0.8858546142578124,0.4644751220703125,9.773131176757811,30.69470588235294
2025-10-15T19:59:31.495435,-11.702290076335878,-5.893129770992366,-1.8931297709923665,0.7326257080078125,0.06464344482421874,9.988609326171874,30.64764705882353
2025-10-15T19:59:31.517837,-14.129770992366412,-4.32824427480916,1.9465648854961832,0.6919242797851562,0.37828386230468747,10.04846436767578,30.741764705882353
2025-10-15T19:59:31.537811,-15.908396946564885,-2.877862595419847,-0.5343511450381679,0.7015010864257812,0.1771709228515625,10.134655627441406,30.64764705882353
2025-10-15T19:59:31.555672,-19.244274809160306,0.7099236641221374,1.465648854961832,0.00718260498046875,-0.7541735229492187,9.138667736816405,30.60058823529412
2025-10-15T19:59:31.577725,-18.282442748091604,-3.099236641221374,-0.8778625954198473,0.040701428222656245,0.44053310546874996,9.054870678710937,30.64764705882353
2025-10-15T19:59:31.598502,-16.549618320610687,2.183206106870229,0.007633587786259542,0.3112462158203125,-0.12210428466796874,10.352527978515624,30.64764705882353
2025-10-15T19:59:31.615452,-16.65648854961832,3.7022900763358777,-3.7786259541984735,0.9409212524414062,0.17477672119140625,9.555258825683593,30.741764705882353
2025-10-15T19:59:31.637408,-13.412213740458014,3.8473282442748094,-1.1297709923664123,0.3016694091796875,-0.8858546142578124,9.938331091308592,30.64764705882353
2025-10-15T19:59:31.659918,-13.557251908396946,5.282442748091603,-2.16793893129771,0.7829039428710937,0.4860229370117187,9.351751684570312,30.60058823529412
2025-10-15T19:59:31.677753,-9.290076335877863,5.67175572519084,-2.312977099236641,0.9265560424804687,-0.6943184814453125,9.718064538574218,30.60058823529412
2025-10-15T19:59:31.700114,-8.763358778625955,7.419847328244275,-2.7251908396946565,0.3902548706054687,0.5770026000976562,9.133879333496093,30.64764705882353
2025-10-15T19:59:31.720135,-3.4656488549618323,7.129770992366412,-3.801526717557252,0.8762778076171874,-0.6105214233398437,9.342174877929686,30.60058823529412
2025-10-15T19:59:31.739371,-1.0305343511450382,7.32824427480916,-4.083969465648855,0.9050082275390624,0.040701428222656245,9.150638745117186,30.60058823529412
2025-10-15T19:59:31.762177,1.6946564885496183,8.16030534351145,-4.923664122137405,0.9026140258789062,0.28012159423828126,9.179369165039063,30.64764705882353
2025-10-15T19:59:31.781759,1.213740458015267,7.099236641221374,-5.694656488549619,0.47884033203125,-0.02154781494140625,8.920795385742187,30.69470588235294
2025-10-15T19:59:31.800234,0.9312977099236641,6.702290076335878,-4.770992366412214,0.239420166015625,-0.16759411621093748,9.72285294189453,30.69470588235294
2025-10-15T19:59:31.822942,-1.1755725190839694,6.854961832061068,-2.0839694656488548,0.7996633544921875,0.11252747802734374,9.313444458007812,30.553529411764707
2025-10-15T19:59:31.843421,-2.3969465648854964,6.969465648854962,-3.0381679389312977,0.6177040283203125,0.44532150878906246,8.681375219726561,30.64764705882353
2025-10-15T19:59:31.860891,-3.480916030534351,5.717557251908397,-2.2748091603053435,0.74699091796875,-0.28490999755859375,8.889670764160156,30.553529411764707
2025-10-15T19:59:31.883482,-3.450381679389313,5.893129770992366,-2.236641221374046,0.5482721801757812,0.2753331909179687,8.640673791503906,30.69470588235294
2025-10-15T19:59:31.905006,-3.7709923664122136,5.297709923664122,-1.450381679389313,0.4381389038085937,-0.2609679809570312,8.537723120117187,30.69470588235294
2025-10-15T19:59:31.922870,-3.786259541984733,3.564885496183206,-1.9465648854961832,0.4740519287109375,0.12689268798828124,8.70771143798828,30.64764705882353
2025-10-15T19:59:31.945019,-2.1908396946564888,2.7709923664122136,-1.748091603053435,0.5434837768554687,-0.38786066894531246,8.8489693359375,30.741764705882353
2025-10-15T19:59:31.965400,0.35877862595419846,2.1603053435114505,-1.8778625954198473,0.47884033203125,-0.06943184814453125,8.877699755859375,30.741764705882353
2025-10-15T19:59:31.983050,0.1297709923664122,0.7862595419847328,-1.8396946564885497,0.5339069702148437,-0.23702596435546874,8.827421520996094,30.60058823529412
2025-10-15T19:59:32.005457,2.595419847328244,-0.1297709923664122,-0.1450381679389313,0.6081272216796875,-0.19871873779296872,9.093177905273437,30.69470588235294
2025-10-15T19:59:32.026269,2.5343511450381677,-0.26717557251908397,-2.1603053435114505,0.35673604736328124,-0.20350714111328125,8.987833032226561,30.64764705882353
2025-10-15T19:59:32.043305,4.847328244274809,-1.4732824427480915,-2.0,0.6009446166992187,-0.1867477294921875,9.172186560058593,30.741764705882353
2025-10-15T19:59:32.065256,4.190839694656488,-1.7709923664122138,-2.351145038167939,0.4261678955078125,-0.17477672119140625,9.162609753417968,30.741764705882353
2025-10-15T19:59:32.086851,6.66412213740458,-2.4885496183206106,-2.5114503816793894,0.24181436767578124,-0.4572925170898437,9.236830004882812,30.60058823529412
2025-10-15T19:59:32.103743,6.0,-3.984732824427481,-2.3053435114503817,0.5674257934570313,-0.02154781494140625,9.057264880371093,30.69470588235294
2025-10-15T19:59:32.125749,7.251908396946565,-4.549618320610687,-2.633587786259542,0.38307226562499996,-0.09337386474609374,9.425971936035156,30.60058823529412
2025-10-15T19:59:32.149672,6.893129770992366,-4.923664122137405,-2.450381679389313,0.3136404174804687,-0.15322890625,9.107543115234375,30.60058823529412
2025-10-15T19:59:32.167001,8.183206106870228,-6.0534351145038165,-2.7099236641221376,0.5674257934570313,-0.43574470214843747,9.667786303710937,30.64764705882353
2025-10-15T19:59:32.189280,7.473282442748092,-5.587786259541985,-2.7557251908396947,0.47884033203125,0.02633621826171875,9.2320416015625,30.60058823529412
2025-10-15T19:59:32.210931,10.65648854961832,-6.343511450381679,-2.8625954198473282,0.36391865234375,0.4261678955078125,9.627084875488281,30.64764705882353
2025-10-15T19:59:32.228299,13.068702290076336,-7.473282442748092,-3.8244274809160306,-1.7669208251953124,0.35194764404296874,10.189722265624999,30.69470588235294
2025-10-15T19:59:32.250678,7.862595419847328,-5.061068702290076,-3.595419847328244,-1.0103531005859374,-0.41898529052734373,10.35492218017578,30.69470588235294
2025-10-15T19:59:32.271320,4.396946564885496,-0.7557251908396947,-2.1297709923664123,0.8379705810546875,0.6560112548828124,11.741164941406248,30.64764705882353
2025-10-15T19:59:32.290628,6.038167938931298,1.8396946564885497,-5.0,3.4668040039062498,-3.4620156005859375,9.782707983398437,30.69470588235294
2025-10-15T19:59:32.313493,0.6793893129770993,-4.2748091603053435,-0.7022900763358778,0.9600748657226562,1.1707646118164061,10.194510668945313,30.69470588235294
2025-10-15T19:59:32.332953,-1.4809160305343512,0.3053435114503817,-0.15267175572519084,-0.1867477294921875,0.9624690673828125,10.812214697265624,30.69470588235294
2025-10-15T19:59:32.351199,-5.916030534351145,3.030534351145038,0.8931297709923665,0.0383072265625,0.7876923461914062,10.053252770996092,30.60058823529412
2025-10-15T19:59:32.373414,-7.5038167938931295,1.8091603053435115,1.900763358778626,0.6607996582031249,-0.07422025146484375,10.58476553955078,30.506470588235295
2025-10-15T19:59:32.393738,-13.572519083969466,-2.450381679389313,2.946564885496183,0.2442085693359375,-0.05746083984375,9.787496386718749,30.64764705882353
2025-10-15T19:59:32.411163,-12.274809160305344,3.83206106870229,1.4732824427480915,-0.7015010864257812,0.5889736083984375,9.935936889648437,30.64764705882353
2025-10-15T19:59:32.433484,-16.27480916030534,2.6030534351145036,0.08396946564885496,1.7094599853515624,-1.3048399047851562,8.659827404785156,30.64764705882353
2025-10-15T19:59:32.454717,-16.52671755725191,3.900763358778626,4.038167938931298,-1.656787548828125,0.8451531860351562,10.287884533691406,30.69470588235294
2025-10-15T19:59:32.471631,-16.84732824427481,-0.37404580152671757,2.2900763358778624,1.7477672119140624,-1.1563994018554686,8.358157995605469,30.553529411764707
2025-10-15T19:59:32.493821,-9.969465648854962,2.16793893129771,1.6793893129770991,0.928950244140625,-1.0678139404296874,9.342174877929686,30.64764705882353
2025-10-15T19:59:32.515514,-7.625954198473282,5.137404580152672,0.5114503816793893,1.0175357055664063,-0.316034619140625,9.421183532714844,30.60058823529412
2025-10-15T19:59:32.532449,-1.4732824427480915,4.137404580152672,-1.702290076335878,-0.1867477294921875,-0.8307879760742187,7.917624890136718,30.741764705882353
2025-10-15T19:59:32.554547,2.9389312977099236,1.465648854961832,-3.045801526717557,0.5003881469726562,-1.66636435546875,9.07163009033203,30.60058823529412
2025-10-15T19:59:32.576644,3.931297709923664,4.061068702290076,-3.33587786259542,2.9640216552734375,-0.430956298828125,9.651026892089844,30.60058823529412
2025-10-15T19:59:32.593554,1.702290076335878,6.564885496183206,-3.3893129770992365,-0.5506663818359374,0.7254431030273437,8.008604553222655,30.64764705882353
2025-10-15T19:59:32.615815,2.1603053435114505,3.618320610687023,-3.5801526717557253,0.24181436767578124,0.2154781494140625,8.82263311767578,30.64764705882353
2025-10-15T19:59:32.638367,0.6106870229007634,3.6030534351145036,-2.7557251908396947,0.06943184814453125,0.05746083984375,9.366116894531249,30.64764705882353
2025-10-15T19:59:32.655300,-1.2595419847328244,4.99236641221374,-2.969465648854962,0.9313444458007812,0.38786066894531246,8.813056311035156,30.69470588235294
2025-10-15T19:59:32.677405,-0.04580152671755725,4.190839694656488,-2.1526717557251906,0.59376201171875,0.08379705810546874,8.51617530517578,30.69470588235294
2025-10-15T19:59:32.700274,-3.717557251908397,1.7786259541984732,-3.7709923664122136,0.737414111328125,0.44532150878906246,8.765172277832031,30.553529411764707
2025-10-15T19:59:32.717168,-4.3893129770992365,2.5572519083969465,-1.8702290076335877,0.5961562133789062,-0.16519991455078123,8.712499841308594,30.60058823529412
2025-10-15T19:59:32.739285,-3.5801526717557253,2.4580152671755724,-1.2366412213740459,0.3495534423828125,0.201112939453125,8.444349255371094,30.60058823529412
2025-10-15T19:59:32.762679,-5.038167938931298,0.25190839694656486,-0.7175572519083969,0.5051765502929687,-0.105344873046875,8.741230261230468,30.69470588235294
2025-10-15T19:59:32.779642,-4.625954198473282,0.9465648854961832,-0.7557251908396947,0.5985504150390625,-0.0909796630859375,8.729259252929687,30.60058823529412
2025-10-15T19:59:32.800536,-4.7251908396946565,0.22900763358778625,-0.5877862595419847,0.4836287353515625,-0.16280571289062498,8.813056311035156,30.64764705882353
2025-10-15T19:59:32.823681,-4.450381679389313,-1.1297709923664123,-0.4580152671755725,0.679953271484375,0.00718260498046875,8.825027319335938,30.553529411764707
2025-10-15T19:59:32.841037,-5.732824427480916,-0.5343511450381679,-1.0229007633587786,-0.33039982910156246,-0.19153613281249998,8.384494213867187,30.60058823529412
2025-10-15T19:59:32.861359,-3.0381679389312977,-0.8702290076335878,0.12213740458015267,0.9002198242187499,0.4429273071289062,9.030928662109375,30.64764705882353
2025-10-15T19:59:32.884211,-2.7938931297709924,-3.6106870229007635,-0.6870229007633588,0.928950244140625,0.4572925170898437,9.064447485351561,30.506470588235295
2025-10-15T19:59:32.902441,-0.9541984732824428,-3.7099236641221376,-1.6106870229007633,0.8978256225585937,-0.2059013427734375,9.02135185546875,30.60058823529412
2025-10-15T19:59:32.921917,-0.6870229007633588,-4.412213740458015,-2.015267175572519,0.33039982910156246,-0.01915361328125,9.188945971679686,30.69470588235294
2025-10-15T19:59:32.944476,-0.8549618320610687,-5.938931297709924,-2.1526717557251906,0.6488286499023437,-0.105344873046875,9.873687646484374,30.64764705882353
2025-10-15T19:59:32.963543,-1.1297709923664123,-4.870229007633588,-2.145038167938931,1.0414777221679687,0.1484405029296875,9.670180505371093,30.60058823529412
2025-10-15T19:59:32.982195,-1.297709923664122,-4.603053435114504,-2.5572519083969465,0.5506663818359374,-0.033518823242187495,9.6151138671875,30.69470588235294
2025-10-15T19:59:33.004498,-2.6030534351145036,-4.984732824427481,-2.6793893129770994,0.6823474731445313,-0.2753331909179687,10.01733974609375,30.553529411764707
2025-10-15T19:59:33.024395,-2.9389312977099236,-3.3282442748091605,-2.549618320610687,0.8020575561523438,-0.040701428222656245,10.311826550292968,30.60058823529412
2025-10-15T19:59:33.042420,-2.7480916030534353,5.320610687022901,-3.045801526717557,0.507570751953125,-0.469263525390625,10.790666882324219,30.64764705882353
2025-10-15T19:59:33.064645,-3.2442748091603053,-2.816793893129771,-2.450381679389313,0.48123453369140623,-0.19871873779296872,10.014945544433592,30.64764705882353
2025-10-15T19:59:33.085389,-4.358778625954199,-1.534351145038168,-2.8244274809160306,0.27293898925781246,-0.15322890625,10.539275708007812,30.60058823529412
2025-10-15T19:59:33.102520,-2.3969465648854964,6.564885496183206,-2.786259541984733,0.9744400756835937,-0.009576806640625,9.847351428222655,30.64764705882353
2025-10-15T19:59:33.124483,-0.2748091603053435,3.633587786259542,-2.3587786259541983,0.5626373901367188,-0.5817910034179687,9.674968908691406,30.64764705882353
2025-10-15T19:59:33.146095,-3.877862595419847,0.5725190839694656,-2.1068702290076335,0.1580173095703125,0.040701428222656245,9.5384994140625,30.64764705882353
2025-10-15T19:59:33.163067,0.09923664122137404,1.282442748091603,-1.465648854961832,0.7038952880859375,-0.00239420166015625,10.158597644042969,30.69470588235294
2025-10-15T19:59:33.184981,-0.45038167938931295,4.786259541984733,-1.1221374045801527,0.6967126831054687,0.4213794921875,10.01015714111328,30.69470588235294
2025-10-15T19:59:33.207012,-1.9236641221374047,3.7786259541984735,-0.26717557251908397,0.5913678100585937,-0.1197100830078125,9.617508068847656,30.741764705882353
2025-10-15T19:59:33.223918,-2.6564885496183206,2.030534351145038,0.5877862595419847,0.4860229370117187,0.20350714111328125,9.8449572265625,30.64764705882353
2025-10-15T19:59:33.245990,-3.854961832061069,4.67175572519084,1.1221374045801527,0.612915625,-0.12689268798828124,9.710881933593749,30.60058823529412
2025-10-15T19:59:33.268854,-4.900763358778626,5.282442748091603,1.534351145038168,0.373495458984375,-0.06943184814453125,9.428366137695312,30.69470588235294
2025-10-15T19:59:33.286074,-5.519083969465649,3.351145038167939,1.8015267175572518,0.3950432739257812,-0.11731588134765625,9.069235888671875,30.64764705882353
2025-10-15T19:59:33.307937,-5.251908396946565,2.6106870229007635,1.8244274809160306,0.040701428222656245,-0.14125789794921875,9.200916979980468,30.741764705882353
2025-10-15T19:59:33.331224,-3.931297709923664,3.4580152671755724,1.1984732824427482,0.22505495605468748,-0.15322890625,8.98304462890625,30.69470588235294
2025-10-15T19:59:33.348125,-3.2519083969465647,2.732824427480916,0.648854961832061,0.1580173095703125,-0.062249243164062495,8.63827958984375,30.64764705882353
2025-10-15T19:59:33.370160,-1.1374045801526718,0.8778625954198473,-0.2366412213740458,0.37828386230468747,0.105344873046875,8.863334545898438,30.69470588235294
2025-10-15T19:59:33.393538,-0.21374045801526717,-0.3816793893129771,-0.7022900763358778,0.5746083984375,-0.028730419921875,8.916006982421875,30.60058823529412
2025-10-15T19:59:33.410408,2.0381679389312977,0.2748091603053435,-1.3206106870229009,0.16280571289062498,0.023942016601562498,8.98304462890625,30.64764705882353
2025-10-15T19:59:33.432541,2.145038167938931,-0.5648854961832062,-1.6030534351145038,0.1771709228515625,0.05985504150390625,8.487444885253906,30.69470588235294
2025-10-15T19:59:33.455084,2.8396946564885495,-2.6259541984732824,-1.786259541984733,0.7230489013671875,0.19871873779296872,8.978256225585938,30.64764705882353
2025-10-15T19:59:33.472008,2.6564885496183206,-3.8702290076335877,-2.312977099236641,0.4285620971679687,-0.06943184814453125,9.121908325195312,30.553529411764707
2025-10-15T19:59:33.494016,3.786259541984733,-2.2900763358778624,-2.4580152671755724,-0.15083470458984374,-0.17956512451171874,8.695740429687499,30.741764705882353
2025-10-15T19:59:33.515703,3.4656488549618323,-4.122137404580153,-2.786259541984733,0.41898529052734373,-0.3016694091796875,8.650250598144531,30.69470588235294
2025-10-15T19:59:33.533010,4.404580152671755,-4.351145038167939,-2.9923664122137406,0.35673604736328124,-0.258573779296875,8.86094034423828,30.69470588235294
2025-10-15T19:59:33.555101,5.633587786259542,-3.0763358778625953,-3.351145038167939,0.1197100830078125,-0.239420166015625,8.98304462890625,30.64764705882353
2025-10-15T19:59:33.575918,3.5419847328244276,-3.7480916030534353,-2.9236641221374047,0.6488286499023437,-0.46686932373046874,8.820238916015624,30.60058823529412
2025-10-15T19:59:33.594122,2.3740458015267176,-4.32824427480916,-2.8396946564885495,0.7637503295898437,0.39743747558593745,8.796296899414061,30.60058823529412
2025-10-15T19:59:33.616412,0.11450381679389313,-2.801526717557252,-2.717557251908397,0.3806780639648437,0.17956512451171874,9.507374792480467,30.741764705882353
2025-10-15T19:59:33.636382,1.1450381679389312,-2.4427480916030535,-1.900763358778626,0.9576806640625,-0.009576806640625,9.105148913574219,30.64764705882353
2025-10-15T19:59:33.655401,-0.9389312977099237,-3.267175572519084,-1.6641221374045803,0.201112939453125,0.49320554199218747,9.433154541015625,30.64764705882353
2025-10-15T19:59:33.677606,-0.8015267175572519,-1.099236641221374,-1.083969465648855,0.8499415893554687,0.16759411621093748,9.672574707031249,30.553529411764707
2025-10-15T19:59:33.697095,-2.4885496183206106,-0.13740458015267176,-1.099236641221374,0.9050082275390624,0.076614453125,9.047688073730468,30.60058823529412
2025-10-15T19:59:33.715362,-2.648854961832061,-0.7938931297709924,-0.8625954198473282,0.6344634399414062,0.16280571289062498,9.777919580078125,30.69470588235294
2025-10-15T19:59:33.737709,-3.3053435114503817,1.4351145038167938,-0.5954198473282443,0.7757213378906249,0.24899697265624998,9.459490759277344,30.64764705882353
2025-10-15T19:59:33.758085,-3.068702290076336,2.7709923664122136,-0.19083969465648856,1.1372457885742187,-0.15562310791015624,9.095572106933593,30.64764705882353
2025-10-15T19:59:33.775604,-4.961832061068702,2.480916030534351,0.20610687022900764,0.7685387329101562,0.22026655273437498,9.387664709472656,30.741764705882353
2025-10-15T19:59:33.797593,-5.320610687022901,3.50381679389313,0.35877862595419846,1.0127473022460938,0.2154781494140625,9.813832604980469,30.64764705882353
2025-10-15T19:59:33.818368,-6.900763358778626,5.145038167938932,0.6564885496183206,0.9050082275390624,0.1867477294921875,8.90643017578125,30.69470588235294
2025-10-15T19:59:33.836531,-7.480916030534351,4.206106870229007,1.1068702290076335,0.7206546997070312,-0.3016694091796875,9.210493786621093,30.64764705882353
2025-10-15T19:59:33.858740,-9.473282442748092,4.511450381679389,1.1908396946564885,0.967257470703125,0.086191259765625,9.370905297851563,30.60058823529412
2025-10-15T19:59:33.878635,-9.290076335877863,6.908396946564886,1.6259541984732824,0.3806780639648437,-0.086191259765625,9.445125549316407,30.741764705882353
2025-10-15T19:59:33.897398,-11.679389312977099,2.0381679389312977,1.2748091603053435,0.19632453613281248,0.49799394531249996,9.409212524414063,30.64764705882353
2025-10-15T19:59:33.919787,-4.709923664122138,3.1297709923664123,0.7633587786259542,0.229843359375,-0.13646949462890623,9.380482104492186,30.64764705882353
2025-10-15T19:59:33.939740,-4.641221374045801,3.9770992366412212,0.5267175572519084,0.6488286499023437,-0.7398083129882812,9.018957653808593,30.741764705882353
2025-10-15T19:59:33.957564,0.12213740458015267,2.480916030534351,-1.6870229007633588,1.1851298217773436,-0.8762778076171874,8.588001354980468,30.69470588235294
2025-10-15T19:59:33.979698,2.3435114503816794,0.4198473282442748,-0.5343511450381679,-0.08379705810546874,0.10773907470703124,9.34696328125,30.64764705882353
2025-10-15T19:59:34.001018,4.3893129770992365,0.3511450381679389,-1.4961832061068703,0.7709329345703124,-0.3280056274414062,9.258377819824219,30.60058823529412
2025-10-15T19:59:34.017923,4.083969465648855,0.732824427480916,-1.4045801526717556,0.4740519287109375,-0.06943184814453125,9.284714038085937,30.69470588235294
2025-10-15T19:59:34.039802,4.183206106870229,-2.9160305343511452,-0.8549618320610687,-0.36631285400390623,0.97683427734375,10.500968481445312,30.64764705882353
2025-10-15T19:59:34.061898,2.801526717557252,-2.381679389312977,-0.40458015267175573,0.1580173095703125,-0.9528922607421875,8.896853369140624,30.69470588235294
2025-10-15T19:59:34.078833,3.8396946564885495,-0.2900763358778626,-0.45038167938931295,0.3136404174804687,0.354341845703125,9.993397729492187,30.506470588235295
2025-10-15T19:59:34.100824,0.8396946564885496,-1.3969465648854962,-0.9770992366412213,0.13646949462890623,-0.02154781494140625,9.730035546875,30.60058823529412
2025-10-15T19:59:34.123775,-0.8702290076335878,-4.908396946564886,0.3511450381679389,0.9624690673828125,0.29448680419921874,9.947907897949218,30.60058823529412
2025-10-15T19:59:34.140639,-5.511450381679389,-3.885496183206107,0.46564885496183206,0.6775590698242188,0.5051765502929687,9.53131680908203,30.64764705882353
2025-10-15T19:59:34.162727,-5.061068702290076,-2.282442748091603,1.2213740458015268,0.6009446166992187,0.2825157958984375,9.79946739501953,30.64764705882353
2025-10-15T19:59:34.184790,-9.801526717557252,-3.427480916030534,1.7251908396946565,0.2059013427734375,0.5458779785156249,9.3852705078125,30.64764705882353
2025-10-15T19:59:34.201700,-9.717557251908397,-3.381679389312977,2.5419847328244276,0.2154781494140625,0.3711012573242187,9.627084875488281,30.64764705882353
2025-10-15T19:59:34.223783,-14.053435114503817,-3.1374045801526718,2.564885496183206,1.2378022583007813,0.22505495605468748,9.674968908691406,30.60058823529412
2025-10-15T19:59:34.246691,-15.557251908396946,-2.183206106870229,2.8244274809160306,-0.430956298828125,1.189918225097656,9.421183532714844,30.69470588235294
2025-10-15T19:59:34.263749,-15.770992366412214,-3.900763358778626,2.4122137404580153,-0.8978256225585937,0.6631938598632812,10.292672937011718,30.60058823529412
2025-10-15T19:59:34.285555,-13.870229007633588,-4.1603053435114505,2.9770992366412212,0.6679822631835937,0.373495458984375,10.041281762695311,30.64764705882353
2025-10-15T19:59:34.308936,-19.53435114503817,-1.816793893129771,2.6717557251908395,0.55545478515625,0.29448680419921874,9.028534460449219,30.64764705882353
2025-10-15T19:59:34.325836,-12.67175572519084,-3.2442748091603053,1.5877862595419847,0.3711012573242187,-0.239420166015625,9.418789331054686,30.60058823529412
2025-10-15T19:59:34.346598,-14.259541984732824,-1.9236641221374047,1.3282442748091603,0.45010991210937495,0.09337386474609374,9.459490759277344,30.553529411764707
2025-10-15T19:59:34.369619,-9.816793893129772,-3.4198473282442747,0.6259541984732825,1.8219874633789062,-0.4285620971679687,9.892841259765625,30.64764705882353
2025-10-15T19:59:34.387439,-6.3816793893129775,-1.1450381679389312,-0.9847328244274809,0.6057330200195312,-0.01915361328125,8.947131604003905,30.69470588235294
2025-10-15T19:59:34.407451,-4.198473282442748,-0.6564885496183206,-1.5725190839694656,0.2920926025390625,-1.2617442749023438,9.076418493652342,30.69470588235294
2025-10-15T19:59:34.430326,0.1297709923664122,-0.4351145038167939,-2.8396946564885495,0.63206923828125,-0.38307226562499996,9.07163009033203,30.60058823529412
2025-10-15T19:59:34.448957,5.183206106870229,-1.9236641221374047,-2.0,0.5410895751953124,-0.9528922607421875,9.33978067626953,30.64764705882353
2025-10-15T19:59:34.468071,10.068702290076336,0.4580152671755725,-5.206106870229007,0.7637503295898437,-0.1484405029296875,9.45470235595703,30.69470588235294
2025-10-15T19:59:34.490644,12.450381679389313,2.099236641221374,-7.702290076335878,0.9337386474609375,-0.679953271484375,9.17458076171875,30.64764705882353
2025-10-15T19:59:34.510119,17.47328244274809,2.2061068702290076,-7.0,0.316034619140625,-0.06703764648437499,8.549694128417968,30.553529411764707
2025-10-15T19:59:34.528427,17.427480916030536,2.0916030534351147,-6.854961832061068,-0.584185205078125,0.0526724365234375,9.86411083984375,30.60058823529412
2025-10-15T19:59:34.550792,19.229007633587788,5.526717557251908,-8.213740458015268,1.2761094848632812,-0.009576806640625,9.880870251464843,30.69470588235294
2025-10-15T19:59:34.571123,21.244274809160306,5.587786259541985,-6.778625954198473,1.1180921752929687,0.32561142578124996,9.612719665527344,30.64764705882353
2025-10-15T19:59:34.588671,18.793893129770993,5.0458015267175576,-7.480916030534351,0.3112462158203125,0.3016694091796875,9.081206896972656,30.553529411764707
2025-10-15T19:59:34.610763,19.17557251908397,4.564885496183206,-6.015267175572519,0.679953271484375,-0.05746083984375,8.88009395751953,30.69470588235294
2025-10-15T19:59:34.631948,18.435114503816795,4.603053435114504,-5.343511450381679,0.6775590698242188,0.32082302246093747,9.521740002441407,30.60058823529412
2025-10-15T19:59:34.648889,10.450381679389313,3.404580152671756,-3.7251908396946565,0.4213794921875,0.5482721801757812,9.574412438964844,30.60058823529412
2025-10-15T19:59:34.671017,9.534351145038167,4.755725190839694,-3.2290076335877864,1.5370774658203123,-0.8499415893554687,9.7683427734375,30.741764705882353
2025-10-15T19:59:34.693043,2.3206106870229006,7.229007633587786,-0.46564885496183206,0.316034619140625,0.11013327636718749,9.394847314453125,30.69470588235294
2025-10-15T19:59:34.709977,1.4045801526717556,5.183206106870229,-1.3740458015267176,1.5179238525390624,0.5985504150390625,8.341398583984375,30.60058823529412
2025-10-15T19:59:34.731989,1.9312977099236641,-1.8244274809160306,-1.900763358778626,0.9864110839843749,-0.2609679809570312,9.777919580078125,30.60058823529412
2025-10-15T19:59:34.754443,-2.2748091603053435,2.9923664122137406,0.3969465648854962,0.6368576416015624,1.1420341918945311,9.141061938476563,30.788823529411765
2025-10-15T19:59:34.771542,-3.9770992366412212,0.4198473282442748,1.213740458015267,0.9169792358398436,-0.028730419921875,9.356540087890625,30.64764705882353
2025-10-15T19:59:34.793722,-7.824427480916031,-1.2290076335877862,0.1297709923664122,1.7932570434570312,1.209071838378906,9.282319836425781,30.64764705882353
2025-10-15T19:59:34.815747,-11.022900763358779,-2.312977099236641,2.0229007633587788,0.7637503295898437,-0.02633621826171875,9.34696328125,30.69470588235294
2025-10-15T19:59:34.832758,-14.389312977099237,-1.5725190839694656,2.198473282442748,-0.7110778930664062,1.2138602416992186,10.156203442382813,30.69470588235294
2025-10-15T19:59:34.854791,-14.793893129770993,-2.427480916030534,3.8091603053435112,-0.5985504150390625,0.4165910888671875,9.5384994140625,30.741764705882353
2025-10-15T19:59:34.877254,-19.099236641221374,-6.33587786259542,3.5419847328244276,1.1947066284179686,-0.023942016601562498,8.535328918457031,30.64764705882353
2025-10-15T19:59:34.894527,-19.068702290076335,-1.1068702290076335,3.0076335877862594,-1.7501614135742187,0.6416460449218749,8.576030346679687,30.64764705882353
2025-10-15T19:59:34.916572,-17.778625954198475,-4.213740458015267,3.435114503816794,0.7278373046875,-1.0534487304687499,9.191340173339842,30.69470588235294
2025-10-15T19:59:34.939995,-18.778625954198475,-5.244274809160306,2.0763358778625953,1.024718310546875,0.59376201171875,8.030152368164062,30.60058823529412
2025-10-15T19:59:34.958189,-13.34351145038168,-4.984732824427481,0.04580152671755725,-0.5626373901367188,-1.1061211669921875,8.650250598144531,30.69470588235294
2025-10-15T19:59:34.978452,-6.984732824427481,-8.801526717557252,-0.3435114503816794,0.36391865234375,-1.0199299072265624,8.43956085205078,30.69470588235294
2025-10-15T19:59:35.001343,0.3282442748091603,-12.374045801526718,-2.435114503816794,-0.3806780639648437,-0.7302315063476562,9.004592443847656,30.69470588235294
2025-10-15T19:59:35.019718,4.259541984732825,-8.458015267175572,-3.1908396946564888,0.5195417602539062,-0.23223756103515625,9.744400756835937,30.64764705882353
2025-10-15T19:59:35.039201,5.427480916030534,-7.916030534351145,-3.435114503816794,0.38307226562499996,-0.07900865478515624,9.334992272949219,30.64764705882353
2025-10-15T19:59:35.061800,2.5114503816793894,-8.961832061068701,-3.267175572519084,0.9074024291992187,0.699106884765625,8.743624462890624,30.64764705882353
2025-10-15T19:59:35.081485,3.4656488549618323,-4.190839694656488,-2.1068702290076335,0.8379705810546875,1.189918225097656,9.926360083007811,30.69470588235294
2025-10-15T19:59:35.099673,3.236641221374046,-3.5419847328244276,-2.7557251908396947,0.8954314208984374,-1.2378022583007813,9.198522778320312,30.69470588235294
2025-10-15T19:59:35.121817,-0.08396946564885496,-3.4198473282442747,-1.4274809160305344,-0.488417138671875,1.0797849487304687,11.010933435058593,30.69470588235294
2025-10-15T19:59:35.142263,-1.1068702290076335,-1.0076335877862594,-1.2061068702290076,1.4796166259765624,-0.40462008056640625,10.005368737792969,30.69470588235294
2025-10-15T19:59:35.159614,-0.40458015267175573,2.4427480916030535,-1.9694656488549618,1.1947066284179686,-0.2537853759765625,9.414000927734374,30.60058823529412
2025-10-15T19:59:35.181779,-1.9083969465648856,2.50381679389313,-1.2900763358778626,0.622492431640625,-0.2059013427734375,9.358934289550781,30.69470588235294
2025-10-15T19:59:35.202987,-1.366412213740458,3.0,-1.2290076335877862,0.6488286499023437,-0.1197100830078125,9.686939916992188,30.60058823529412
2025-10-15T19:59:35.219890,-2.3893129770992365,4.9541984732824424,-1.0687022900763359,0.8475473876953125,-0.0909796630859375,9.6151138671875,30.64764705882353
2025-10-15T19:59:35.241877,-1.3358778625954197,6.351145038167939,-0.9847328244274809,0.5913678100585937,0.04548983154296875,9.662997900390625,30.69470588235294
2025-10-15T19:59:35.263574,-1.8702290076335877,6.32824427480916,-0.6335877862595419,0.6631938598632812,-0.04548983154296875,9.397241516113281,30.60058823529412
2025-10-15T19:59:35.280946,-1.0305343511450382,6.916030534351145,-0.5648854961832062,0.7062894897460937,-0.06464344482421874,9.406818322753905,30.64764705882353
2025-10-15T19:59:35.303118,-0.9083969465648855,8.419847328244275,-0.549618320610687,0.29448680419921874,0.11731588134765625,9.141061938476563,30.64764705882353
2025-10-15T19:59:35.324334,-0.030534351145038167,7.755725190839694,-0.6259541984732825,0.09337386474609374,-0.3016694091796875,9.4618849609375,30.553529411764707
2025-10-15T19:59:35.341236,-0.7938931297709924,7.488549618320611,-0.11450381679389313,0.3112462158203125,-0.023942016601562498,9.495403784179686,30.64764705882353
2025-10-15T19:59:35.363215,-0.19083969465648856,8.022900763358779,-0.183206106870229,0.7206546997070312,0.03591302490234375,9.315838659667968,30.64764705882353
2025-10-15T19:59:35.385276,-1.3587786259541985,7.687022900763359,0.1297709923664122,0.8116343627929687,0.24181436767578124,8.954314208984375,30.69470588235294
2025-10-15T19:59:35.402179,-1.183206106870229,6.587786259541985,0.3816793893129771,0.6560112548828124,0.23223756103515625,9.323021264648437,30.553529411764707
2025-10-15T19:59:35.424287,-1.748091603053435,6.961832061068702,0.29770992366412213,0.584185205078125,0.11731588134765625,9.473855969238281,30.64764705882353
2025-10-15T19:59:35.447213,-2.7938931297709924,6.106870229007634,0.7862595419847328,0.17956512451171874,0.1149216796875,9.26316622314453,30.64764705882353
2025-10-15T19:59:35.464149,-4.122137404580153,4.801526717557252,0.9694656488549618,0.316034619140625,0.011971008300781249,9.330203869628905,30.553529411764707
2025-10-15T19:59:35.486228,-4.885496183206107,4.717557251908397,0.7709923664122137,0.5674257934570313,-0.12210428466796874,9.394847314453125,30.60058823529412
2025-10-15T19:59:35.508308,-6.412213740458015,4.740458015267175,0.8854961832061069,0.38786066894531246,0.2154781494140625,9.251195214843749,30.64764705882353
2025-10-15T19:59:35.525389,-7.038167938931298,3.4122137404580153,0.3435114503816794,0.0909796630859375,-0.1580173095703125,9.203311181640624,30.69470588235294
2025-10-15T19:59:35.547376,-6.793893129770993,3.8931297709923665,-0.16793893129770993,0.4285620971679687,0.12210428466796874,9.572018237304688,30.64764705882353
2025-10-15T19:59:35.570286,-5.32824427480916,1.5114503816793894,-0.6030534351145038,0.8547299926757812,0.16759411621093748,9.519345800781249,30.64764705882353
2025-10-15T19:59:35.587180,-4.229007633587786,0.40458015267175573,-1.3740458015267176,0.5770026000976562,0.00718260498046875,9.220070593261719,30.60058823529412
2025-10-15T19:59:35.609585,-2.763358778625954,-0.3816793893129771,-2.5114503816793894,0.296881005859375,-0.00239420166015625,9.425971936035156,30.506470588235295
2025-10-15T19:59:35.631635,-2.0076335877862594,-1.251908396946565,-2.984732824427481,0.47644613037109373,-0.08379705810546874,9.452308154296874,30.64764705882353
2025-10-15T19:59:35.648563,-0.8015267175572519,-1.297709923664122,-3.717557251908397,0.49320554199218747,0.08858546142578125,9.425971936035156,30.69470588235294
2025-10-15T19:59:35.670744,-0.7709923664122137,-1.7404580152671756,-5.8320610687022905,0.16280571289062498,-0.009576806640625,9.22485899658203,30.60058823529412
2025-10-15T19:59:35.692359,-0.21374045801526717,-2.4427480916030535,-3.8396946564885495,0.4213794921875,-0.028730419921875,9.435548742675781,30.64764705882353
2025-10-15T19:59:35.709275,-0.4351145038167939,-2.2061068702290076,-3.816793893129771,0.6727706665039062,0.040701428222656245,9.397241516113281,30.64764705882353
2025-10-15T19:59:35.731189,-0.061068702290076333,-2.381679389312977,-3.6106870229007635,0.4381389038085937,-0.01915361328125,9.330203869628905,30.64764705882353
2025-10-15T19:59:35.753652,0.183206106870229,-3.33587786259542,-3.33587786259542,0.44053310546874996,-0.03591302490234375,9.299079248046874,30.64764705882353
2025-10-15T19:59:35.770557,0.35877862595419846,-3.4885496183206106,-2.8244274809160306,0.45968671875,-0.13407529296874998,9.284714038085937,30.69470588235294
2025-10-15T19:59:35.792567,1.0763358778625953,-3.5267175572519083,-2.7557251908396947,0.6823474731445313,-0.01915361328125,9.270348828125,30.64764705882353
2025-10-15T19:59:35.815917,1.5267175572519085,-3.648854961832061,-2.366412213740458,0.6105214233398437,-0.06464344482421874,9.342174877929686,30.69470588235294
2025-10-15T19:59:35.832798,2.045801526717557,-3.7557251908396947,-1.900763358778626,0.59376201171875,-0.0718260498046875,9.203311181640624,30.64764705882353
2025-10-15T19:59:35.854961,1.9541984732824427,-3.6106870229007635,-1.3740458015267176,0.6344634399414062,0.08140285644531249,9.313444458007812,30.64764705882353
2025-10-15T19:59:35.877433,2.366412213740458,-3.381679389312977,-0.816793893129771,0.4333505004882812,-0.0047884033203125,9.143456140136719,30.64764705882353
2025-10-15T19:59:35.894339,1.6259541984732824,-3.6030534351145036,-0.5572519083969466,0.6512228515624999,-0.12689268798828124,9.370905297851563,30.64764705882353
2025-10-15T19:59:35.916364,0.9236641221374046,-2.4580152671755724,-0.030534351145038167,0.7062894897460937,0.08140285644531249,9.272743029785156,30.741764705882353
2025-10-15T19:59:35.939591,0.07633587786259542,-2.2900763358778624,0.5648854961832062,0.7278373046875,0.13646949462890623,9.279925634765624,30.60058823529412
2025-10-15T19:59:35.956525,-1.2748091603053435,-1.5038167938931297,0.7099236641221374,0.6177040283203125,0.0383072265625,9.315838659667968,30.64764705882353
2025-10-15T19:59:35.978256,-1.534351145038168,-1.4274809160305344,1.3206106870229009,0.47884033203125,0.07900865478515624,9.260772021484375,30.60058823529412
2025-10-15T19:59:36.001613,-3.1526717557251906,-0.9847328244274809,1.1755725190839694,0.8786720092773437,0.09576806640624999,9.296685046386719,30.64764705882353
2025-10-15T19:59:36.018495,-4.587786259541985,-0.11450381679389313,1.7557251908396947,0.39743747558593745,0.06943184814453125,9.069235888671875,30.69470588235294
2025-10-15T19:59:36.039183,-6.083969465648855,-0.030534351145038167,1.8854961832061068,0.373495458984375,0.10773907470703124,9.085995300292968,30.60058823529412
2025-10-15T19:59:36.061896,-6.755725190839694,0.4198473282442748,1.5419847328244274,0.40462008056640625,-0.05027823486328125,8.810662109374999,30.69470588235294
2025-10-15T19:59:36.079250,-7.923664122137405,0.7862595419847328,1.5419847328244274,0.07900865478515624,0.062249243164062495,8.93755479736328,30.64764705882353
2025-10-15T19:59:36.099543,-8.625954198473282,0.8778625954198473,1.7251908396946565,0.6153098266601562,-0.0143652099609375,9.284714038085937,30.69470588235294
2025-10-15T19:59:36.122485,-7.893129770992366,1.4351145038167938,1.7786259541984732,0.7565677246093749,-0.2609679809570312,9.052476477050782,30.60058823529412
2025-10-15T19:59:36.139787,-7.870229007633588,2.145038167938931,1.465648854961832,0.23223756103515625,-0.05985504150390625,9.143456140136719,30.741764705882353
2025-10-15T19:59:36.160647,-10.83206106870229,2.6030534351145036,2.6106870229007635,0.5530605834960938,0.9193734375,9.490615380859374,30.69470588235294
2025-10-15T19:59:36.183504,-7.404580152671755,0.22900763358778625,-0.16793893129770993,0.5291185668945312,-0.0526724365234375,9.356540087890625,30.64764705882353
2025-10-15T19:59:36.200373,-7.190839694656488,-0.1984732824427481,0.4351145038167939,0.7517793212890624,-0.6703764648437499,9.665392102050781,30.69470588235294
2025-10-15T19:59:36.222214,-3.984732824427481,-1.5877862595419847,-0.8473282442748091,-0.17477672119140625,-0.29448680419921874,8.647856396484375,30.64764705882353
2025-10-15T19:59:36.245621,-3.030534351145038,-3.099236641221374,-0.9847328244274809,0.28012159423828126,-1.0630255371093749,8.954314208984375,30.64764705882353
2025-10-15T19:59:36.262501,1.2748091603053435,-1.7099236641221374,-2.549618320610687,0.8978256225585937,0.23223756103515625,9.394847314453125,30.69470588235294
2025-10-15T19:59:36.283187,1.2595419847328244,-2.312977099236641,-2.2519083969465647,1.3670891479492187,-0.6200982299804687,9.217676391601563,30.60058823529412
2025-10-15T19:59:36.305934,1.9770992366412214,-2.618320610687023,-3.267175572519084,0.49799394531249996,0.07422025146484375,9.868899243164062,30.553529411764707
2025-10-15T19:59:36.323247,3.145038167938931,-0.7251908396946565,-2.83206106870229,0.36631285400390623,-0.6560112548828124,9.074024291992187,30.69470588235294
2025-10-15T19:59:36.343454,3.0610687022900764,-1.282442748091603,-3.1068702290076335,0.9983820922851562,0.27293898925781246,9.37808790283203,30.553529411764707
2025-10-15T19:59:36.366418,4.450381679389313,-0.5877862595419847,-3.0763358778625953,0.4740519287109375,0.1867477294921875,9.909600671386718,30.69470588235294
2025-10-15T19:59:36.384624,5.32824427480916,-0.6564885496183206,-3.030534351145038,1.2282254516601563,-0.3184288208007812,9.466673364257812,30.69470588235294
2025-10-15T19:59:36.404015,3.9083969465648853,-1.3206106870229009,-2.7251908396946565,-0.5147533569335937,0.5363011718749999,9.399635717773437,30.64764705882353
2025-10-15T19:59:36.426372,3.2748091603053435,0.10687022900763359,-2.6946564885496183,-0.016759411621093748,0.40222587890625,9.093177905273437,30.553529411764707
2025-10-15T19:59:36.445385,1.8396946564885497,-0.29770992366412213,-1.7557251908396947,-0.5339069702148437,0.6871358764648438,10.788272680664061,30.64764705882353
2025-10-15T19:59:36.464068,-0.31297709923664124,2.6259541984732824,-1.6870229007633588,-0.076614453125,-0.3280056274414062,10.249577307128906,30.64764705882353
2025-10-15T19:59:36.486473,1.251908396946565,0.07633587786259542,0.7022900763358778,1.3862427612304686,0.5674257934570313,9.878476049804688,30.788823529411765
2025-10-15T19:59:36.506327,-0.9770992366412213,0.7557251908396947,-1.9465648854961832,0.5817910034179687,-0.47884033203125,9.239224206542968,30.60058823529412
2025-10-15T19:59:36.524001,-2.969465648854962,1.2748091603053435,0.6335877862595419,0.36152445068359373,0.5003881469726562,9.6151138671875,30.64764705882353
2025-10-15T19:59:36.545875,-3.3740458015267176,0.15267175572519084,1.2671755725190839,0.603338818359375,0.0143652099609375,9.753977563476562,30.60058823529412
2025-10-15T19:59:36.565753,-3.9770992366412212,5.1679389312977095,1.534351145038168,0.6296750366210937,-0.18914193115234373,9.332598071289063,30.60058823529412
2025-10-15T19:59:36.584435,-4.862595419847328,3.5801526717557253,1.8854961832061068,0.6631938598632812,0.13168109130859373,9.555258825683593,30.741764705882353
2025-10-15T19:59:36.606901,-5.282442748091603,3.2213740458015265,2.351145038167939,0.49799394531249996,0.0430956298828125,9.641450085449218,30.69470588235294
2025-10-15T19:59:36.626777,-5.099236641221374,5.633587786259542,2.404580152671756,0.16280571289062498,0.45010991210937495,9.660603698730467,30.64764705882353
2025-10-15T19:59:36.644707,-4.816793893129771,7.091603053435114,2.2061068702290076,1.1611878051757811,-0.5003881469726562,9.923965881347655,30.64764705882353
2025-10-15T19:59:36.666672,-5.732824427480916,3.3282442748091605,2.9618320610687023,1.1635820068359375,-0.3495534423828125,9.126696728515624,30.64764705882353
2025-10-15T19:59:36.687401,-3.9770992366412212,4.358778625954199,2.480916030534351,0.6703764648437499,-0.086191259765625,9.399635717773437,30.64764705882353
2025-10-15T19:59:36.704295,-2.801526717557252,5.595419847328245,1.7099236641221374,0.3399766357421875,-0.19393033447265623,9.490615380859374,30.69470588235294
2025-10-15T19:59:36.726458,-1.7099236641221374,6.061068702290076,1.984732824427481,0.30885201416015623,-0.05027823486328125,9.368511096191405,30.69470588235294
2025-10-15T19:59:36.748763,-1.5954198473282444,3.8931297709923665,1.5954198473282444,0.4525041137695312,0.09337386474609374,9.215282189941405,30.64764705882353
2025-10-15T19:59:36.769524,-0.5114503816793893,2.114503816793893,1.2290076335877862,0.4836287353515625,0.1149216796875,9.418789331054686,30.60058823529412
2025-10-15T19:59:36.792346,-0.015267175572519083,4.679389312977099,0.8549618320610687,0.16759411621093748,0.00239420166015625,9.246406811523437,30.64764705882353
2025-10-15T19:59:36.809898,-0.04580152671755725,3.3893129770992365,0.48091603053435117,0.47644613037109373,-0.11731588134765625,9.10993731689453,30.788823529411765
2025-10-15T19:59:36.831467,0.25190839694656486,1.6793893129770991,0.08396946564885496,0.49320554199218747,-0.08379705810546874,9.057264880371093,30.553529411764707
2025-10-15T19:59:36.854852,1.2442748091603053,2.099236641221374,-0.17557251908396945,0.316034619140625,0.05746083984375,9.344569079589844,30.69470588235294
2025-10-15T19:59:36.871857,1.2671755725190839,1.5877862595419847,-0.5343511450381679,0.5889736083984375,-0.14604630126953125,8.973467822265624,30.69470588235294
2025-10-15T19:59:36.893787,1.4427480916030535,1.8015267175572518,-1.213740458015267,0.4165910888671875,-0.1005564697265625,9.088389501953124,30.69470588235294
2025-10-15T19:59:36.917064,1.6793893129770991,-0.4122137404580153,-1.2595419847328244,0.5578489868164063,-0.13168109130859373,9.404424121093749,30.64764705882353
2025-10-15T19:59:36.933952,2.2290076335877864,-0.21374045801526717,-1.9618320610687023,0.37828386230468747,-0.09576806640624999,9.0788126953125,30.69470588235294
2025-10-15T19:59:36.954743,2.4427480916030535,-2.122137404580153,-2.1603053435114505,0.3711012573242187,-0.19871873779296872,9.047688073730468,30.64764705882353
2025-10-15T19:59:36.977779,3.053435114503817,-2.7022900763358777,-2.3587786259541983,0.7278373046875,-0.24660277099609373,9.327809667968749,30.69470588235294
2025-10-15T19:59:36.995702,3.801526717557252,-2.549618320610687,-3.1068702290076335,0.5195417602539062,0.028730419921875,9.090783703613281,30.741764705882353
2025-10-15T19:59:37.015654,4.351145038167939,-3.5801526717557253,-3.33587786259542,0.28012159423828126,-0.19632453613281248,9.088389501953124,30.64764705882353
2025-10-15T19:59:37.038510,3.648854961832061,-5.244274809160306,-3.3740458015267176,0.5363011718749999,-0.055066638183593745,9.124302526855468,30.64764705882353
2025-10-15T19:59:37.056800,3.114503816793893,-4.9465648854961835,-3.3587786259541983,1.120486376953125,-0.08379705810546874,8.8872765625,30.64764705882353
2025-10-15T19:59:37.076459,5.175572519083969,-5.282442748091603,-2.435114503816794,0.16041151123046873,0.5961562133789062,9.33978067626953,30.64764705882353
2025-10-15T19:59:37.099332,1.6641221374045803,-6.312977099236641,-2.984732824427481,0.411802685546875,0.08379705810546874,8.971073620605468,30.60058823529412
2025-10-15T19:59:37.117548,0.5725190839694656,-6.236641221374046,-2.9160305343511452,0.8307879760742187,0.08140285644531249,9.253589416503905,30.60058823529412
2025-10-15T19:59:37.140183,0.015267175572519083,-6.442748091603053,-2.687022900763359,0.5770026000976562,0.10773907470703124,9.131485131835937,30.788823529411765
2025-10-15T19:59:37.163032,-1.2748091603053435,-7.7251908396946565,-2.198473282442748,0.6081272216796875,0.06943184814453125,9.270348828125,30.64764705882353
2025-10-15T19:59:37.181691,-2.2595419847328246,-7.511450381679389,-2.0916030534351147,0.5506663818359374,0.06703764648437499,9.282319836425781,30.553529411764707
2025-10-15T19:59:37.201535,-3.3740458015267176,-7.748091603053435,-1.6870229007633588,0.5793968017578125,0.15562310791015624,9.469067565917967,30.69470588235294
2025-10-15T19:59:37.224257,-4.312977099236641,-7.305343511450381,-0.9083969465648855,0.6727706665039062,0.16759411621093748,9.354145886230468,30.69470588235294
2025-10-15T19:59:37.243440,-6.343511450381679,-7.015267175572519,-0.366412213740458,0.82360537109375,0.1771709228515625,9.639055883789062,30.69470588235294
2025-10-15T19:59:37.262101,-8.13740458015267,-7.267175572519084,0.4198473282442748,1.2042834350585936,-0.19393033447265623,9.445125549316407,30.64764705882353
2025-10-15T19:59:37.284441,-10.030534351145038,-6.5038167938931295,1.0076335877862594,0.3136404174804687,0.37828386230468747,9.303867651367186,30.64764705882353
2025-10-15T19:59:37.303893,-12.877862595419847,-5.900763358778626,2.2748091603053435,0.7254431030273437,0.19871873779296872,10.038887561035155,30.741764705882353
2025-10-15T19:59:37.322871,-17.15267175572519,-5.5038167938931295,3.3740458015267176,0.5722141967773438,0.689530078125,9.528922607421874,30.741764705882353
2025-10-15T19:59:37.345418,-13.267175572519085,-3.6793893129770994,3.2900763358778624,2.2170307373046874,-0.39264907226562495,10.496180078124999,30.69470588235294
2025-10-15T19:59:37.364902,-19.603053435114504,1.3282442748091603,4.8396946564885495,1.6017209106445311,-1.35990654296875,8.851363537597656,30.69470588235294
2025-10-15T19:59:37.383086,-14.557251908396946,-0.9923664122137404,2.2213740458015265,1.1252747802734375,0.5339069702148437,9.816226806640625,30.64764705882353
2025-10-15T19:59:37.405208,-14.763358778625955,0.6793893129770993,3.7022900763358777,1.1947066284179686,-0.6727706665039062,10.053252770996092,30.553529411764707
2025-10-15T19:59:37.426032,-11.068702290076336,2.877862595419847,2.5343511450381677,0.055066638183593745,0.33758243408203126,9.349357482910156,30.60058823529412
2025-10-15T19:59:37.443022,-11.366412213740459,4.396946564885496,2.8931297709923665,1.1707646118164061,-0.9935936889648437,9.5384994140625,30.60058823529412
2025-10-15T19:59:37.464815,-6.885496183206107,5.534351145038168,1.7709923664122138,1.6232687255859375,-0.25139117431640623,9.188945971679686,30.553529411764707
2025-10-15T19:59:37.486445,-1.6259541984732824,6.633587786259542,0.5114503816793893,0.6440402465820312,-0.6488286499023437,9.402029919433593,30.60058823529412
2025-10-15T19:59:37.504797,4.190839694656488,8.229007633587786,-0.7709923664122137,0.3232172241210937,-0.1771709228515625,9.057264880371093,30.64764705882353
2025-10-15T19:59:37.527489,5.885496183206107,9.0,-1.1374045801526718,0.3687070556640625,-0.689530078125,9.490615380859374,30.64764705882353
2025-10-15T19:59:37.550149,4.770992366412214,8.564885496183207,-1.8244274809160306,-0.44053310546874996,-0.18435352783203124,8.468291271972657,30.741764705882353
2025-10-15T19:59:37.567158,4.6183206106870225,7.480916030534351,-1.0381679389312977,1.7501614135742187,0.26815058593749996,10.1131078125,30.741764705882353
2025-10-15T19:59:37.589455,0.6564885496183206,10.427480916030534,-1.2442748091603053,1.5394716674804687,0.47884033203125,10.714052429199219,30.60058823529412
2025-10-15T19:59:37.612845,-0.0916030534351145,9.923664122137405,-0.05343511450381679,1.2641384765625,0.49320554199218747,9.677363110351562,30.788823529411765
2025-10-15T19:59:37.629741,0.33587786259541985,8.801526717557252,0.366412213740458,-0.10295067138671875,0.22505495605468748,9.718064538574218,30.741764705882353
2025-10-15T19:59:37.651533,-1.7709923664122138,9.572519083969466,0.5419847328244275,0.7110778930664062,0.6967126831054687,9.85692823486328,30.788823529411765
2025-10-15T19:59:37.674735,-2.8473282442748094,7.6106870229007635,1.7557251908396947,0.4429273071289062,-0.49320554199218747,9.145850341796875,30.69470588235294
2025-10-15T19:59:37.691634,-1.6030534351145038,7.587786259541985,0.1297709923664122,0.5219359619140624,0.0,9.009380847167968,30.553529411764707
2025-10-15T19:59:37.712879,-1.5572519083969465,6.854961832061068,-0.648854961832061,0.35194764404296874,-0.11013327636718749,9.023746057128905,30.69470588235294
2025-10-15T19:59:37.735893,-1.0,6.961832061068702,-0.916030534351145,0.11013327636718749,-0.45489831542968745,8.927977990722656,30.741764705882353
2025-10-15T19:59:37.753273,0.24427480916030533,5.0534351145038165,-1.5267175572519085,0.4572925170898437,0.076614453125,8.82263311767578,30.788823529411765
2025-10-15T19:59:37.774165,1.7328244274809161,4.114503816793893,-1.7938931297709924,-0.1005564697265625,-0.26336218261718747,8.772354882812499,30.553529411764707
2025-10-15T19:59:37.797364,2.366412213740458,3.0229007633587788,-2.9160305343511452,0.16759411621093748,-0.12210428466796874,8.808267907714843,30.64764705882353
2025-10-15T19:59:37.815626,4.244274809160306,1.213740458015267,-3.6946564885496183,0.05746083984375,-0.4070142822265625,8.980650427246093,30.60058823529412
2025-10-15T19:59:37.835381,5.038167938931298,1.900763358778626,-4.068702290076335,0.2657563842773437,0.1005564697265625,8.913612780761719,30.60058823529412
2025-10-15T19:59:37.858153,6.923664122137405,-1.381679389312977,-4.488549618320611,0.603338818359375,-0.2657563842773437,9.287108239746093,30.64764705882353
2025-10-15T19:59:37.877235,6.603053435114504,-3.4122137404580153,-4.931297709923665,0.5123591552734374,0.105344873046875,8.987833032226561,30.64764705882353
2025-10-15T19:59:37.896457,7.206106870229007,-4.038167938931298,-5.229007633587786,-0.04548983154296875,0.04548983154296875,9.260772021484375,30.69470588235294
2025-10-15T19:59:37.919092,7.061068702290076,-5.412213740458015,-5.282442748091603,0.51714755859375,-0.009576806640625,9.428366137695312,30.741764705882353
2025-10-15T19:59:37.938189,7.6106870229007635,-6.229007633587786,-5.641221374045801,0.4333505004882812,-0.13168109130859373,9.255983618164063,30.69470588235294
2025-10-15T19:59:37.956938,7.32824427480916,-7.145038167938932,-5.6183206106870225,0.5434837768554687,0.23223756103515625,9.476250170898437,30.60058823529412
2025-10-15T19:59:37.979273,7.404580152671755,-8.022900763358779,-4.068702290076335,0.8954314208984374,-0.11252747802734374,9.794678991699218,30.69470588235294
2025-10-15T19:59:37.999238,7.236641221374046,-8.396946564885496,-5.198473282442748,0.5793968017578125,0.7278373046875,9.727641345214844,30.60058823529412
2025-10-15T19:59:38.017025,6.465648854961832,-7.961832061068702,-4.541984732824427,0.5482721801757812,0.13168109130859373,9.725247143554688,30.69470588235294
2025-10-15T19:59:38.039018,5.099236641221374,-8.900763358778626,-4.938931297709924,0.7230489013671875,0.0047884033203125,9.636661682128906,30.69470588235294
2025-10-15T19:59:38.059554,5.33587786259542,-7.267175572519084,-4.488549618320611,0.5793968017578125,-0.354341845703125,9.765948571777344,30.64764705882353
2025-10-15T19:59:38.077087,2.946564885496183,-6.938931297709924,-2.984732824427481,0.967257470703125,0.10295067138671875,10.560823522949217,30.69470588235294
2025-10-15T19:59:38.099585,-0.7633587786259542,-7.251908396946565,-2.717557251908397,-0.4836287353515625,0.6248866333007812,10.141838232421874,30.788823529411765
2025-10-15T19:59:38.120963,-2.8091603053435112,-5.229007633587786,-1.2900763358778626,0.4644751220703125,0.7829039428710937,9.90241806640625,30.60058823529412
2025-10-15T19:59:38.137851,-9.19083969465649,-5.458015267175573,0.4122137404580153,1.5059528442382812,-0.16998831787109375,9.964667309570311,30.64764705882353
2025-10-15T19:59:38.160310,-10.603053435114504,-4.251908396946565,1.1450381679389312,0.5482721801757812,0.5722141967773438,9.555258825683593,30.64764705882353
2025-10-15T19:59:38.182547,-12.763358778625955,-3.5267175572519083,2.4732824427480917,0.5147533569335937,1.0031704956054688,10.012551342773437,30.69470588235294
2025-10-15T19:59:38.199428,-17.763358778625953,-0.7557251908396947,3.5801526717557253,0.00239420166015625,1.3862427612304686,10.527304699707031,30.64764705882353
2025-10-15T19:59:38.221824,-20.229007633587788,0.5343511450381679,2.0,-0.38786066894531246,-0.9169792358398436,9.1554271484375,30.64764705882353
2025-10-15T19:59:38.244544,-28.671755725190838,-1.7328244274809161,5.969465648854962,0.06703764648437499,-1.5155296508789062,7.275978845214843,30.64764705882353
2025-10-15T19:59:38.261433,-22.717557251908396,-3.2290076335877864,5.267175572519084,-0.16280571289062498,0.9026140258789062,9.90241806640625,30.60058823529412
2025-10-15T19:59:38.283893,-20.015267175572518,3.5419847328244276,5.847328244274809,-0.5793968017578125,0.44053310546874996,7.9846625366210935,30.741764705882353
2025-10-15T19:59:38.307177,-13.633587786259541,-1.8244274809160306,2.3053435114503817,0.19871873779296872,-0.63206923828125,8.315062365722655,30.60058823529412
2025-10-15T19:59:38.324053,-1.4580152671755726,-2.2442748091603053,-0.6412213740458015,-0.33518823242187495,-0.34715924072265625,8.396465222167969,30.64764705882353
2025-10-15T19:59:38.345605,9.793893129770993,1.9770992366412214,-4.015267175572519,0.1771709228515625,0.4955997436523437,8.686163623046875,30.69470588235294
2025-10-15T19:59:38.368674,14.80916030534351,-1.6870229007633588,-6.1603053435114505,0.06943184814453125,-0.13646949462890623,8.113949426269532,30.64764705882353
2025-10-15T19:59:38.385547,14.34351145038168,-0.35877862595419846,-5.900763358778626,0.16759411621093748,0.9193734375,9.514557397460937,30.69470588235294
2025-10-15T19:59:38.406411,14.290076335877863,5.854961832061068,-7.778625954198473,0.7350199096679687,0.5027823486328125,7.936778503417968,30.64764705882353
2025-10-15T19:59:38.429322,16.083969465648856,4.526717557251908,-5.938931297709924,-0.6751648681640625,0.15322890625,10.654197387695312,30.64764705882353
2025-10-15T19:59:38.446750,19.015267175572518,5.00763358778626,-8.86259541984733,0.1197100830078125,1.0941501586914062,8.506598498535157,30.741764705882353
2025-10-15T19:59:38.467189,14.770992366412214,3.2595419847328246,-3.954198473282443,-0.1867477294921875,1.7669208251953124,9.17458076171875,30.64764705882353
2025-10-15T19:59:38.489815,7.282442748091603,1.8625954198473282,-3.0763358778625953,0.5339069702148437,2.47081611328125,8.923189587402343,30.60058823529412
2025-10-15T19:59:38.507564,-6.511450381679389,2.4427480916030535,0.2900763358778626,0.718260498046875,0.9504980590820312,10.295067138671874,30.69470588235294
2025-10-15T19:59:38.527347,-3.3282442748091605,4.770992366412214,0.366412213740458,0.02154781494140625,2.3151930053710936,9.504980590820312,30.553529411764707
2025-10-15T19:59:38.549870,-9.267175572519085,3.015267175572519,2.6030534351145036,-1.1037269653320312,2.003946789550781,9.062053283691405,30.60058823529412
2025-10-15T19:59:38.568530,-11.358778625954198,1.984732824427481,2.6412213740458017,0.6584054565429687,1.16837041015625,10.441113439941406,30.64764705882353
2025-10-15T19:59:38.587477,-17.18320610687023,4.938931297709924,7.732824427480916,-0.22505495605468748,1.5490484741210937,10.345345373535155,30.553529411764707
2025-10-15T19:59:38.609950,-21.045801526717558,5.458015267175573,6.015267175572519,0.9026140258789062,1.0965443603515623,9.373299499511718,30.64764705882353
2025-10-15T19:59:38.629064,-28.389312977099237,7.229007633587786,8.48091603053435,-1.695094775390625,0.9361328491210937,9.332598071289063,30.60058823529412
2025-10-15T19:59:38.647736,-26.709923664122137,0.5267175572519084,11.404580152671755,-0.09816226806640624,2.195482922363281,8.037334973144532,30.69470588235294
2025-10-15T19:59:38.670137,-18.625954198473284,6.213740458015267,8.221374045801527,0.5674257934570313,-0.34237083740234375,10.067617980957031,30.60058823529412
2025-10-15T19:59:38.690015,-16.65648854961832,2.687022900763359,7.732824427480916,0.00718260498046875,-0.0383072265625,9.088389501953124,30.553529411764707
2025-10-15T19:59:38.707904,-9.48091603053435,2.877862595419847,7.244274809160306,0.7206546997070312,-0.74699091796875,9.208099584960937,30.60058823529412
2025-10-15T19:59:38.729930,-11.396946564885496,4.312977099236641,6.717557251908397,1.2880804931640624,-0.7350199096679687,9.085995300292968,30.64764705882353
2025-10-15T19:59:38.750667,-8.16793893129771,3.7022900763358777,7.435114503816794,1.1061211669921875,-0.33039982910156246,9.5384994140625,30.64764705882353
2025-10-15T19:59:38.767564,-8.893129770992367,5.633587786259542,5.893129770992366,0.7278373046875,0.1292868896484375,9.7683427734375,30.64764705882353
2025-10-15T19:59:38.789633,-7.450381679389313,5.236641221374046,8.083969465648854,0.8259995727539062,-0.3495534423828125,10.029310754394531,30.69470588235294
2025-10-15T19:59:38.811249,-5.7251908396946565,5.152671755725191,8.061068702290076,0.30885201416015623,0.6775590698242188,10.383652600097655,30.64764705882353
2025-10-15T19:59:38.828195,-7.580152671755725,2.877862595419847,8.595419847328245,0.15083470458984374,-0.2657563842773437,9.052476477050782,30.741764705882353
2025-10-15T19:59:38.850294,-1.3435114503816794,3.4656488549618323,7.282442748091603,0.7326257080078125,-0.5195417602539062,9.325415466308593,30.69470588235294
2025-10-15T19:59:38.872530,-2.954198473282443,3.954198473282443,6.99236641221374,0.2753331909179687,0.4572925170898437,9.785102185058593,30.60058823529412
2025-10-15T19:59:38.889501,-3.5419847328244276,4.030534351145038,6.99236641221374,0.05027823486328125,0.17477672119140625,9.014169250488282,30.69470588235294
2025-10-15T19:59:38.911765,-3.6106870229007635,3.0229007633587788,6.7251908396946565,-0.0143652099609375,0.32561142578124996,9.533711010742186,30.741764705882353
2025-10-15T19:59:38.934335,-5.358778625954199,3.717557251908397,6.1679389312977095,-0.258573779296875,0.8044517578125,9.356540087890625,30.60058823529412
2025-10-15T19:59:38.951245,-5.541984732824427,3.3053435114503817,5.770992366412214,-0.06703764648437499,0.16998831787109375,9.330203869628905,30.69470588235294
2025-10-15T19:59:38.973740,-7.66412213740458,2.3969465648854964,5.687022900763359,0.0526724365234375,0.3064578125,9.449913952636718,30.60058823529412
2025-10-15T19:59:38.997122,-6.908396946564886,2.7480916030534353,4.2748091603053435,-0.26336218261718747,0.17238251953125,9.10993731689453,30.69470588235294
2025-10-15T19:59:39.014000,-7.259541984732825,1.4732824427480915,3.885496183206107,-0.033518823242187495,-0.0143652099609375,9.212887988281249,30.64764705882353
2025-10-15T19:59:39.036154,-8.732824427480915,0.7022900763358778,3.450381679389313,-0.277727392578125,-0.10295067138671875,9.05965908203125,30.64764705882353
2025-10-15T19:59:39.059481,-9.114503816793894,0.9618320610687023,3.1603053435114505,-0.12449848632812499,-0.2609679809570312,8.667010009765624,30.60058823529412
2025-10-15T19:59:39.076366,-7.557251908396947,0.3511450381679389,0.9694656488549618,-0.21308394775390624,-0.3950432739257812,8.626308581542968,30.64764705882353
2025-10-15T19:59:39.097388,-7.770992366412214,-3.732824427480916,0.8320610687022901,-0.07422025146484375,-0.9361328491210937,8.858546142578124,30.788823529411765
2025-10-15T19:59:39.120302,-6.519083969465649,-4.229007633587786,-2.435114503816794,-1.0390835205078124,-0.8930372192382812,8.489839086914062,30.69470588235294
2025-10-15T19:59:39.137643,0.9618320610687023,-6.549618320610687,-9.351145038167939,-1.3024457031249999,-0.612915625,8.298302954101562,30.64764705882353
2025-10-15T19:59:39.158244,3.885496183206107,-11.244274809160306,-11.793893129770993,0.679953271484375,-1.0175357055664063,8.686163623046875,30.69470588235294
2025-10-15T19:59:39.181054,3.3282442748091605,-10.106870229007633,-12.923664122137405,-0.7781155395507812,-1.2737152832031249,10.1131078125,30.64764705882353
2025-10-15T19:59:39.198805,0.2900763358778626,-10.083969465648854,-11.404580152671755,1.5275006591796874,-3.27526787109375,8.951920007324219,30.64764705882353
2025-10-15T19:59:39.218743,-1.1221374045801527,-11.725190839694656,-10.549618320610687,-0.8834604125976562,-0.679953271484375,9.430760339355468,30.741764705882353
2025-10-15T19:59:39.241566,0.0,-11.17557251908397,-9.251908396946565,1.419761584472656,-2.626439221191406,9.279925634765624,30.64764705882353
2025-10-15T19:59:39.260262,-0.21374045801526717,-9.198473282442748,-7.7251908396946565,1.2665326782226562,-1.7453730102539062,9.512163195800781,30.69470588235294
2025-10-15T19:59:39.279333,0.6412213740458015,-8.17557251908397,-4.870229007633588,0.9744400756835937,-2.0183119995117185,9.988609326171874,30.553529411764707
2025-10-15T19:59:39.301734,0.08396946564885496,-7.015267175572519,-3.351145038167939,1.0199299072265624,-1.3311761230468748,9.785102185058593,30.64764705882353
2025-10-15T19:59:39.321203,0.6717557251908397,-4.7251908396946565,-1.5038167938931297,1.180341418457031,-1.618480322265625,9.842563024902343,30.64764705882353
2025-10-15T19:59:39.339453,-2.198473282442748,-3.3740458015267176,-0.7404580152671756,1.0558429321289062,-0.7589619262695312,9.694122521972655,30.64764705882353
2025-10-15T19:59:39.361616,-1.0916030534351144,-0.8015267175572519,0.12213740458015267,0.6967126831054687,-1.3311761230468748,9.97184991455078,30.64764705882353
2025-10-15T19:59:39.382366,-3.381679389312977,1.0305343511450382,1.3511450381679388,1.0941501586914062,-0.9528922607421875,9.677363110351562,30.60058823529412
2025-10-15T19:59:39.399408,-3.732824427480916,2.267175572519084,2.0381679389312977,1.4173673828125,-1.1851298217773436,9.560047229003906,30.788823529411765
2025-10-15T19:59:39.421534,-3.8625954198473282,3.519083969465649,2.885496183206107,0.9600748657226562,-0.5219359619140624,9.514557397460937,30.64764705882353
2025-10-15T19:59:39.443673,-4.282442748091603,5.687022900763359,3.4122137404580153,0.6177040283203125,-0.9002198242187499,9.311050256347656,30.64764705882353
2025-10-15T19:59:39.460591,-4.625954198473282,6.358778625954199,4.0458015267175576,0.5243301635742187,-0.5147533569335937,9.485826977539062,30.64764705882353
2025-10-15T19:59:39.482590,-3.8702290076335877,6.435114503816794,4.519083969465649,0.8882488159179687,-0.5386953735351562,9.258377819824219,30.64764705882353
2025-10-15T19:59:39.505552,-2.8473282442748094,8.083969465648854,4.526717557251908,0.16041151123046873,-0.354341845703125,9.239224206542968,30.60058823529412
2025-10-15T19:59:39.522470,-2.1603053435114505,6.893129770992366,4.1603053435114505,0.3232172241210937,-1.0127473022460938,8.863334545898438,30.741764705882353
2025-10-15T19:59:39.544269,-1.8549618320610688,5.67175572519084,3.267175572519084,0.5722141967773438,-1.0630255371093749,8.89924757080078,30.60058823529412
2025-10-15T19:59:39.567535,2.7938931297709924,4.854961832061068,1.6793893129770991,0.5410895751953124,-0.9457096557617187,8.690952026367187,30.741764705882353
2025-10-15T19:59:39.584429,6.343511450381679,4.763358778625954,-0.7938931297709924,-0.13168109130859373,-0.8882488159179687,8.564059338378906,30.60058823529412
2025-10-15T19:59:39.605071,11.49618320610687,2.7557251908396947,-4.557251908396947,-0.5913678100585937,-1.149216796875,8.501810095214843,30.60058823529412
2025-10-15T19:59:39.628019,17.206106870229007,0.6870229007633588,-7.015267175572519,0.3495534423828125,-0.6823474731445313,8.655039001464843,30.69470588235294
2025-10-15T19:59:39.645881,22.641221374045802,-3.7099236641221376,-9.473282442748092,1.1252747802734375,-1.2378022583007813,8.75320126953125,30.64764705882353
2025-10-15T19:59:39.665806,26.862595419847327,-3.519083969465649,-12.51908396946565,1.1611878051757811,-1.0773907470703123,8.99501563720703,30.741764705882353
2025-10-15T19:59:39.688594,27.96946564885496,1.2442748091603053,-12.694656488549619,-0.5913678100585937,-2.281674182128906,7.922413293457031,30.553529411764707
2025-10-15T19:59:39.707273,27.633587786259543,-0.061068702290076333,-12.702290076335878,1.01514150390625,-0.4525041137695312,9.710881933593749,30.64764705882353
2025-10-15T19:59:39.726341,28.458015267175572,1.1297709923664123,-13.48091603053435,0.17238251953125,-0.4836287353515625,9.394847314453125,30.69470588235294
2025-10-15T19:59:39.748853,28.52671755725191,3.549618320610687,-11.786259541984732,1.656787548828125,-1.5203180541992187,9.342174877929686,30.553529411764707
2025-10-15T19:59:39.768496,22.282442748091604,-0.07633587786259542,-9.16793893129771,1.005564697265625,0.8858546142578124,10.771513269042968,30.60058823529412
2025-10-15T19:59:39.786663,14.381679389312977,1.5190839694656488,-7.259541984732825,1.2641384765625,0.8212111694335937,10.414777221679687,30.60058823529412
2025-10-15T19:59:39.808915,8.786259541984732,2.045801526717557,-5.862595419847328,1.0582371337890624,0.46686932373046874,10.242394702148436,30.64764705882353
2025-10-15T19:59:39.828808,-3.648854961832061,3.83206106870229,1.9389312977099236,0.076614453125,0.5530605834960938,9.598354455566406,30.69470588235294
2025-10-15T19:59:39.847485,-11.01526717557252,0.3969465648854962,2.2900763358778624,0.7278373046875,-0.49320554199218747,9.296685046386719,30.69470588235294
2025-10-15T19:59:39.869616,-11.793893129770993,4.603053435114504,3.4427480916030535,-0.07422025146484375,-0.6464344482421874,8.923189587402343,30.69470588235294
2025-10-15T19:59:39.888737,-16.900763358778626,5.106870229007634,4.076335877862595,0.22266075439453123,-0.5147533569335937,8.851363537597656,30.741764705882353
2025-10-15T19:59:39.908045,-20.419847328244273,-1.366412213740458,4.969465648854962,-1.458068811035156,-0.9145850341796874,9.141061938476563,30.69470588235294
2025-10-15T19:59:39.930468,-26.47328244274809,-0.3435114503816794,6.557251908396947,2.3247698120117186,0.6655880615234374,10.405200415039062,30.69470588235294
2025-10-15T19:59:39.949075,-24.66412213740458,-0.9389312977099237,5.923664122137405,1.5873557006835937,-0.9504980590820312,10.486603271484375,30.64764705882353
2025-10-15T19:59:39.969389,-24.282442748091604,-2.732824427480916,8.335877862595419,-0.02633621826171875,0.7589619262695312,7.711723547363281,30.741764705882353
2025-10-15T19:59:39.992049,-23.778625954198475,0.48091603053435117,6.435114503816794,2.4396914916992185,-0.4740519287109375,8.528146313476562,30.741764705882353
2025-10-15T19:59:40.009479,-21.412213740458014,-7.091603053435114,8.854961832061068,2.0829554443359375,-0.4285620971679687,9.53131680908203,30.64764705882353
2025-10-15T19:59:40.030339,-15.038167938931299,-5.0534351145038165,7.557251908396947,2.109291662597656,-0.11013327636718749,7.649474304199218,30.69470588235294
2025-10-15T19:59:40.053332,-8.961832061068701,-7.908396946564886,5.450381679389313,0.7685387329101562,-0.5865794067382812,7.625532287597656,30.741764705882353
2025-10-15T19:59:40.071683,-2.3893129770992365,-9.01526717557252,3.7099236641221376,0.7134720947265625,-0.9026140258789062,8.693346228027343,30.69470588235294
2025-10-15T19:59:40.091667,2.2061068702290076,-8.076335877862595,2.49618320610687,0.4165910888671875,0.45010991210937495,9.548076220703125,30.741764705882353
2025-10-15T19:59:40.114071,5.6106870229007635,-9.541984732824428,0.4122137404580153,0.5051765502929687,-1.0845733520507812,9.509768994140625,30.506470588235295
2025-10-15T19:59:40.133150,6.8396946564885495,-8.664122137404581,0.7251908396946565,0.6703764648437499,-0.21787235107421873,9.660603698730467,30.64764705882353
2025-10-15T19:59:40.151755,4.862595419847328,-8.549618320610687,-0.8396946564885496,0.1292868896484375,-0.8690952026367187,9.988609326171874,30.64764705882353
2025-10-15T19:59:40.174174,6.450381679389313,-7.427480916030534,-1.2290076335877862,2.2768857788085937,0.9552864624023437,10.366893188476562,30.64764705882353
2025-10-15T19:59:40.194099,3.3893129770992365,-1.3358778625954197,-2.549618320610687,0.45489831542968745,0.5578489868164063,10.261548315429687,30.60058823529412
2025-10-15T19:59:40.211860,9.725190839694656,-7.374045801526718,-3.786259541984733,1.4006079711914061,-0.3495534423828125,10.235212097167969,30.64764705882353
2025-10-15T19:59:40.233991,4.587786259541985,-2.2290076335877864,-5.015267175572519,0.8283937744140625,-0.5746083984375,9.483432775878907,30.69470588235294
2025-10-15T19:59:40.254380,9.122137404580153,-4.305343511450381,-4.541984732824427,0.7972691528320313,0.0430956298828125,10.180145458984374,30.69470588235294
2025-10-15T19:59:40.272596,6.091603053435114,-3.4427480916030535,-4.5038167938931295,1.1180921752929687,0.009576806640625,9.600748657226562,30.60058823529412
2025-10-15T19:59:40.294916,8.122137404580153,-0.8702290076335878,-4.236641221374046,0.6057330200195312,-0.16998831787109375,10.539275708007812,30.553529411764707
2025-10-15T19:59:40.315360,3.3053435114503817,0.5038167938931297,-3.5343511450381677,0.8882488159179687,-0.4525041137695312,9.662997900390625,30.64764705882353
2025-10-15T19:59:40.332744,1.3358778625954197,1.9465648854961832,-2.7557251908396947,0.6440402465820312,-0.3711012573242187,9.270348828125,30.60058823529412
2025-10-15T19:59:40.354810,-0.16793893129770993,-1.1145038167938932,-1.6106870229007633,0.97683427734375,0.11013327636718749,9.957484704589843,30.64764705882353
2025-10-15T19:59:40.375586,-1.1068702290076335,0.8549618320610687,-1.3893129770992367,0.5434837768554687,-0.1292868896484375,9.753977563476562,30.69470588235294
2025-10-15T19:59:40.393593,-1.0687022900763359,3.7557251908396947,-1.1603053435114503,0.5698199951171875,0.17956512451171874,9.787496386718749,30.69470588235294
2025-10-15T19:59:40.415858,-3.8931297709923665,5.786259541984733,-1.0763358778625953,0.5339069702148437,-0.11013327636718749,9.210493786621093,30.64764705882353
2025-10-15T19:59:40.436291,-1.465648854961832,3.877862595419847,-1.099236641221374,0.6655880615234374,-0.5722141967773438,9.349357482910156,30.64764705882353
2025-10-15T19:59:40.454909,-3.5114503816793894,5.458015267175573,-0.40458015267175573,1.5442600708007812,0.0,8.987833032226561,30.69470588235294
2025-10-15T19:59:40.477057,-3.7557251908396947,7.0458015267175576,-0.5267175572519084,1.218648645019531,0.45489831542968745,9.320627062988281,30.69470588235294
2025-10-15T19:59:40.496129,-4.778625954198473,8.122137404580153,-0.48091603053435117,0.7876923461914062,0.05746083984375,8.865728747558594,30.69470588235294
2025-10-15T19:59:40.515689,-5.580152671755725,6.702290076335878,0.4580152671755725,0.9864110839843749,0.1292868896484375,9.311050256347656,30.553529411764707
2025-10-15T19:59:40.538394,-8.358778625954198,8.961832061068701,0.816793893129771,0.354341845703125,0.296881005859375,8.927977990722656,30.64764705882353
2025-10-15T19:59:40.556580,-9.007633587786259,9.778625954198473,1.633587786259542,0.6727706665039062,-0.1388636962890625,8.966285217285156,30.741764705882353
2025-10-15T19:59:40.576680,-9.916030534351146,8.145038167938932,1.1221374045801527,0.32561142578124996,0.5195417602539062,8.805873706054687,30.69470588235294
2025-10-15T19:59:40.599507,-11.404580152671755,8.229007633587786,2.6946564885496183,0.55545478515625,-0.4740519287109375,9.196128576660156,30.741764705882353
2025-10-15T19:59:40.617289,-5.396946564885496,9.625954198473282,-0.04580152671755725,2.4157494750976563,0.3854664672851562,8.82981572265625,30.69470588235294
2025-10-15T19:59:40.637917,-5.351145038167939,7.564885496183206,1.7251908396946565,0.33039982910156246,-0.4333505004882812,9.210493786621093,30.553529411764707
2025-10-15T19:59:40.660708,-6.580152671755725,4.763358778625954,-0.6641221374045801,0.4070142822265625,0.46686932373046874,8.825027319335938,30.69470588235294
2025-10-15T19:59:40.677574,-6.984732824427481,5.8320610687022905,-1.916030534351145,0.4333505004882812,-0.47644613037109373,9.351751684570312,30.64764705882353
2025-10-15T19:59:40.699206,-6.0534351145038165,4.137404580152672,-1.5801526717557253,0.42377369384765623,0.39983167724609375,8.750807067871094,30.69470588235294
2025-10-15T19:59:40.722538,-3.015267175572519,3.618320610687023,-2.381679389312977,0.507570751953125,-0.6248866333007812,9.05965908203125,30.69470588235294
2025-10-15T19:59:40.740191,3.633587786259542,0.04580152671755725,-5.9541984732824424,0.7110778930664062,-0.4381389038085937,8.690952026367187,30.741764705882353
2025-10-15T19:59:40.761419,7.984732824427481,-1.3893129770992367,-7.213740458015267,0.6009446166992187,-0.36391865234375,9.765948571777344,30.64764705882353
2025-10-15T19:59:40.784560,9.068702290076336,-1.3511450381679388,-8.374045801526718,0.603338818359375,0.23702596435546874,9.074024291992187,30.741764705882353
2025-10-15T19:59:40.801483,7.870229007633588,-1.6106870229007633,-10.534351145038167,0.7709329345703124,1.1420341918945311,9.272743029785156,30.69470588235294
2025-10-15T19:59:40.823506,8.053435114503817,-4.122137404580153,-12.603053435114504,-0.277727392578125,-0.430956298828125,8.010998754882811,30.64764705882353
2025-10-15T19:59:40.846798,14.01526717557252,-5.694656488549619,-12.564885496183207,0.16280571289062498,-0.9217676391601562,9.085995300292968,30.69470588235294
2025-10-15T19:59:40.863760,13.916030534351146,-7.198473282442748,-12.625954198473282,0.5099649536132812,-0.296881005859375,9.361328491210937,30.69470588235294
2025-10-15T19:59:40.885975,15.282442748091603,-8.534351145038167,-11.83206106870229,0.7589619262695312,-0.15322890625,9.670180505371093,30.60058823529412
2025-10-15T19:59:40.909288,14.145038167938932,-8.80916030534351,-10.412213740458014,0.8044517578125,-0.2657563842773437,9.107543115234375,30.64764705882353
2025-10-15T19:59:40.926316,14.732824427480915,-9.641221374045802,-9.961832061068701,0.6512228515624999,-0.354341845703125,9.849745629882811,30.64764705882353
2025-10-15T19:59:40.948356,12.473282442748092,-8.793893129770993,-7.557251908396947,0.6943184814453125,-0.30406361083984373,9.907206469726562,30.69470588235294
2025-10-15T19:59:40.970801,12.13740458015267,-6.625954198473282,-6.244274809160306,0.6272808349609375,0.20829554443359374,9.299079248046874,30.553529411764707
2025-10-15T19:59:40.987754,8.786259541984732,-7.282442748091603,-4.183206106870229,0.948103857421875,-0.28730419921875,9.72285294189453,30.69470588235294
2025-10-15T19:59:41.009818,9.396946564885496,-4.458015267175573,-4.564885496183206,-0.7302315063476562,0.6440402465820312,9.763554370117188,30.553529411764707
2025-10-15T19:59:41.033006,4.702290076335878,-2.954198473282443,-3.7938931297709924,1.1659762084960936,0.09816226806640624,10.517727893066406,30.60058823529412
2025-10-15T19:59:41.049935,1.5877862595419847,-2.7557251908396947,-0.816793893129771,1.0319009155273438,0.5410895751953124,9.150638745117186,30.64764705882353
2025-10-15T19:59:41.071886,-1.633587786259542,-1.9083969465648856,-0.19083969465648856,1.3144167114257812,0.5003881469726562,9.418789331054686,30.64764705882353
2025-10-15T19:59:41.093908,-9.65648854961832,0.22900763358778625,1.4122137404580153,0.7278373046875,0.2059013427734375,8.920795385742187,30.69470588235294
2025-10-15T19:59:41.110806,-14.366412213740459,-0.5725190839694656,5.755725190839694,0.023942016601562498,0.7589619262695312,9.09796630859375,30.64764705882353
2025-10-15T19:59:41.133078,-20.267175572519083,2.4198473282442747,5.00763358778626,1.1923124267578125,1.4125789794921875,9.437942944335937,30.69470588235294
2025-10-15T19:59:41.154669,-25.015267175572518,3.267175572519084,7.740458015267175,0.5698199951171875,0.2920926025390625,9.344569079589844,30.741764705882353
2025-10-15T19:59:41.171776,-30.770992366412212,3.2748091603053435,7.480916030534351,0.8906430175781249,0.7110778930664062,9.306261853027344,30.64764705882353
2025-10-15T19:59:41.193677,-32.80152671755725,4.3893129770992365,7.709923664122138,1.13006318359375,0.6727706665039062,9.612719665527344,30.69470588235294
2025-10-15T19:59:41.216113,-35.099236641221374,4.541984732824427,8.045801526717558,0.9241618408203125,0.38307226562499996,9.119514123535156,30.64764705882353
2025-10-15T19:59:41.233124,-36.05343511450382,6.244274809160306,8.870229007633588,1.8602946899414061,-0.6919242797851562,9.72285294189453,30.788823529411765
2025-10-15T19:59:41.255304,-32.81679389312977,7.099236641221374,7.679389312977099,1.1851298217773436,0.7302315063476562,9.291896643066405,30.69470588235294
2025-10-15T19:59:41.277319,-26.427480916030536,4.32824427480916,7.404580152671755,0.28490999755859375,-1.3263877197265623,10.242394702148436,30.60058823529412
2025-10-15T19:59:41.294816,-21.80916030534351,4.870229007633588,4.198473282442748,0.24660277099609373,-0.4261678955078125,8.341398583984375,30.69470588235294
2025-10-15T19:59:41.317229,-15.007633587786259,1.8396946564885497,2.8931297709923665,0.4644751220703125,-0.9074024291992187,8.688557824707031,30.60058823529412
2025-10-15T19:59:41.340503,-8.877862595419847,2.122137404580153,1.702290076335878,0.30885201416015623,-0.7278373046875,8.63827958984375,30.741764705882353
2025-10-15T19:59:41.357378,-1.8473282442748091,-1.916030534351145,-2.5267175572519083,0.6081272216796875,-0.488417138671875,9.325415466308593,30.69470588235294
2025-10-15T19:59:41.378843,3.4885496183206106,1.3435114503816794,-5.076335877862595,-0.2537853759765625,-0.7613561279296874,9.440337145996093,30.69470588235294
2025-10-15T19:59:41.402246,8.786259541984732,1.2061068702290076,-6.458015267175573,0.3232172241210937,-0.38786066894531246,9.619902270507811,30.60058823529412
2025-10-15T19:59:41.419120,9.694656488549619,1.3435114503816794,-5.534351145038168,1.0271125122070313,0.10773907470703124,9.457096557617186,30.64764705882353
2025-10-15T19:59:41.440016,12.526717557251908,0.9312977099236641,-8.427480916030534,-1.7381904052734374,-0.05746083984375,8.008604553222655,30.64764705882353
2025-10-15T19:59:41.462980,15.15267175572519,3.8702290076335877,-7.870229007633588,1.3120225097656248,-1.484405029296875,10.012551342773437,30.64764705882353
2025-10-15T19:59:41.480026,19.702290076335878,1.7404580152671756,-9.885496183206106,1.8195932617187498,-0.488417138671875,8.075642199707032,30.64764705882353
2025-10-15T19:59:41.501393,21.85496183206107,-0.5877862595419847,-9.793893129770993,2.4396914916992185,0.34237083740234375,9.502586389160156,30.64764705882353
2025-10-15T19:59:41.524586,20.66412213740458,4.801526717557252,-6.3816793893129775,0.928950244140625,0.6847416748046875,9.737218151855469,30.553529411764707
2025-10-15T19:59:41.541484,12.83969465648855,-1.1068702290076335,-8.34351145038168,1.7956512451171873,0.30406361083984373,10.766724865722656,30.69470588235294
2025-10-15T19:59:41.563722,11.183206106870228,-1.6259541984732824,-4.0534351145038165,0.5291185668945312,2.492363928222656,11.360486877441405,30.69470588235294
2025-10-15T19:59:41.587066,0.7786259541984732,3.045801526717557,-2.564885496183206,1.388636962890625,0.239420166015625,9.7683427734375,30.69470588235294
2025-10-15T19:59:41.603955,-6.938931297709924,0.6641221374045801,-0.366412213740458,0.9433154541015625,1.189918225097656,10.024522351074218,30.741764705882353
2025-10-15T19:59:41.626290,-13.992366412213741,-2.9083969465648853,3.6030534351145036,1.905784521484375,-1.4963760375976562,9.026140258789061,30.60058823529412
2025-10-15T19:59:41.649343,-10.664122137404581,-0.1984732824427481,-0.8549618320610687,-0.105344873046875,1.3623007446289062,9.715670336914062,30.741764705882353
2025-10-15T19:59:41.666239,-14.083969465648854,-1.3206106870229009,1.8091603053435115,1.637633935546875,-0.4908113403320312,9.038111267089842,30.69470588235294
2025-10-15T19:59:41.688474,-6.679389312977099,-0.9465648854961832,0.6870229007633588,0.679953271484375,0.23702596435546874,9.141061938476563,30.64764705882353
2025-10-15T19:59:41.710606,-13.335877862595419,-4.488549618320611,3.801526717557252,-0.15083470458984374,1.2641384765625,8.319850769042969,30.60058823529412
2025-10-15T19:59:41.727605,-3.969465648854962,-1.3587786259541985,1.282442748091603,-0.4070142822265625,1.4891934326171874,9.330203869628905,30.69470588235294
2025-10-15T19:59:41.750602,-6.175572519083969,1.6564885496183206,0.22137404580152673,0.5291185668945312,-1.1013327636718748,8.14028564453125,30.741764705882353
2025-10-15T19:59:41.769784,3.900763358778626,-4.00763358778626,-1.1450381679389312,1.3263877197265623,0.4525041137695312,9.504980590820312,30.64764705882353
2025-10-15T19:59:41.788476,-0.7557251908396947,0.7022900763358778,-1.6870229007633588,-0.35673604736328124,0.04548983154296875,9.90241806640625,30.69470588235294
2025-10-15T19:59:41.810801,0.916030534351145,-1.7786259541984732,-1.083969465648855,1.2808978881835937,0.009576806640625,9.710881933593749,30.64764705882353
2025-10-15T19:59:41.830313,-3.1603053435114505,-3.145038167938931,-1.0687022900763359,0.6775590698242188,-0.2059013427734375,9.49300958251953,30.64764705882353
2025-10-15T19:59:41.848548,-2.3206106870229006,-0.7251908396946565,-1.1374045801526718,0.18914193115234373,0.689530078125,9.643844287109374,30.788823529411765
2025-10-15T19:59:41.870834,-2.282442748091603,0.8702290076335878,-2.267175572519084,1.43652099609375,-0.7422025146484375,8.973467822265624,30.64764705882353
2025-10-15T19:59:41.890771,-3.435114503816794,1.916030534351145,-1.9236641221374047,-0.16041151123046873,0.05985504150390625,8.961496813964843,30.60058823529412
2025-10-15T19:59:41.908611,-3.5343511450381677,0.17557251908396945,-3.030534351145038,0.3806780639648437,-0.296881005859375,9.437942944335937,30.64764705882353
2025-10-15T19:59:41.930784,-1.9694656488549618,1.0916030534351144,-4.030534351145038,0.8930372192382812,-0.2825157958984375,9.349357482910156,30.64764705882353
2025-10-15T19:59:41.951189,1.9465648854961832,1.984732824427481,-5.6106870229007635,0.45010991210937495,-0.24181436767578124,9.392453112792968,30.64764705882353
2025-10-15T19:59:41.968577,3.6259541984732824,0.08396946564885496,-7.603053435114504,0.15322890625,-0.5147533569335937,9.179369165039063,30.69470588235294
2025-10-15T19:59:41.990934,6.709923664122138,0.1450381679389313,-9.48091603053435,0.16759411621093748,-0.5315127685546874,9.124302526855468,30.741764705882353
2025-10-15T19:59:42.012208,7.885496183206107,0.9312977099236641,-10.374045801526718,0.3447650390625,-0.17477672119140625,9.787496386718749,30.69470588235294
2025-10-15T19:59:42.029090,10.992366412213741,1.1297709923664123,-11.297709923664122,0.28490999755859375,-0.33758243408203126,9.45470235595703,30.64764705882353
2025-10-15T19:59:42.051298,11.908396946564885,0.7022900763358778,-11.320610687022901,0.5434837768554687,-0.38786066894531246,9.636661682128906,30.64764705882353
2025-10-15T19:59:42.072977,11.793893129770993,0.3435114503816794,-11.229007633587786,0.7422025146484375,-0.055066638183593745,9.923965881347655,30.64764705882353
2025-10-15T19:59:42.089835,10.969465648854962,2.0229007633587788,-10.885496183206106,0.49320554199218747,0.13407529296874998,9.804255798339844,30.64764705882353
2025-10-15T19:59:42.111912,9.900763358778626,2.0381679389312977,-10.19083969465649,0.6679822631835937,-0.26815058593749996,9.713276135253906,30.64764705882353
2025-10-15T19:59:42.134024,7.229007633587786,1.7709923664122138,-9.122137404580153,0.6464344482421874,-0.2920926025390625,9.765948571777344,30.69470588235294
2025-10-15T19:59:42.150949,4.297709923664122,2.366412213740458,-7.740458015267175,1.0079588989257813,0.13407529296874998,9.792284790039062,30.64764705882353
2025-10-15T19:59:42.173325,0.7251908396946565,3.3893129770992365,-6.106870229007634,1.0295067138671874,0.32082302246093747,9.528922607421874,30.64764705882353
2025-10-15T19:59:42.194138,-0.1297709923664122,3.519083969465649,-5.603053435114504,0.6177040283203125,-0.143652099609375,9.294290844726563,30.64764705882353
2025-10-15T19:59:42.212226,-5.923664122137405,3.1908396946564888,-4.061068702290076,0.9648632690429687,0.2920926025390625,9.576806640625,30.64764705882353
2025-10-15T19:59:42.234348,-9.488549618320612,3.6259541984732824,-2.480916030534351,0.5386953735351562,0.4213794921875,9.550470422363281,30.69470588235294
2025-10-15T19:59:42.254376,-13.549618320610687,5.33587786259542,-1.2595419847328244,1.369483349609375,0.7158662963867187,9.579200842285156,30.741764705882353
2025-10-15T19:59:42.273349,-16.81679389312977,3.9923664122137406,-1.3358778625954197,0.5698199951171875,-0.16998831787109375,9.138667736816405,30.64764705882353
2025-10-15T19:59:42.295839,-21.17557251908397,4.603053435114504,1.2748091603053435,1.898601916503906,0.430956298828125,9.203311181640624,30.64764705882353
2025-10-15T19:59:42.314486,-23.96946564885496,6.3816793893129775,1.2366412213740459,0.7565677246093749,1.0462661254882812,9.167398156738281,30.64764705882353
2025-10-15T19:59:42.334389,-26.14503816793893,3.3206106870229006,3.66412213740458,-0.354341845703125,0.105344873046875,9.478644372558593,30.69470588235294
2025-10-15T19:59:42.357177,-26.587786259541986,3.4122137404580153,2.2977099236641223,2.104503259277344,-1.0749965454101562,8.741230261230468,30.64764705882353
2025-10-15T19:59:42.376304,-28.198473282442748,2.3206106870229006,1.9618320610687023,3.0358477050781247,0.3758896606445312,8.949525805664061,30.69470588235294
2025-10-15T19:59:42.394963,-26.259541984732824,-1.9312977099236641,0.33587786259541985,2.4564509033203126,-1.8842367065429686,7.821856823730468,30.69470588235294
2025-10-15T19:59:42.417381,-19.129770992366414,1.786259541984733,0.3435114503816794,0.8978256225585937,-0.6703764648437499,8.717288244628906,30.69470588235294
2025-10-15T19:59:42.436457,-15.877862595419847,-2.2519083969465647,-1.5877862595419847,0.5291185668945312,-0.22266075439453123,7.4770917846679685,30.69470588235294
2025-10-15T19:59:42.456018,-8.587786259541986,-2.351145038167939,-2.5114503816793894,2.7748797241210936,-0.7110778930664062,9.459490759277344,30.741764705882353
2025-10-15T19:59:42.478769,-2.3740458015267176,-4.511450381679389,-5.175572519083969,-3.1555577880859373,0.07900865478515624,7.931990100097655,30.60058823529412
2025-10-15T19:59:42.497878,9.045801526717558,-5.106870229007634,-8.633587786259541,1.0438719238281249,-3.162740393066406,10.120290417480469,30.741764705882353
2025-10-15T19:59:42.516553,11.16030534351145,-4.587786259541985,-10.694656488549619,-0.5195417602539062,0.0718260498046875,8.839392529296875,30.69470588235294
2025-10-15T19:59:42.538957,17.33587786259542,-7.656488549618321,-12.320610687022901,0.16041151123046873,-1.5490484741210937,9.057264880371093,30.69470588235294
2025-10-15T19:59:42.558561,25.068702290076335,-7.1679389312977095,-14.83969465648855,0.6488286499023437,-1.4891934326171874,9.275137231445312,30.64764705882353
2025-10-15T19:59:42.578120,28.15267175572519,-5.068702290076335,-15.381679389312977,-0.27293898925781246,-0.0526724365234375,10.050858569335936,30.69470588235294
2025-10-15T19:59:42.600774,29.984732824427482,-5.641221374045801,-16.83969465648855,0.33518823242187495,-0.5961562133789062,9.828197814941406,30.69470588235294
2025-10-15T19:59:42.619792,32.57251908396947,-6.534351145038168,-16.236641221374047,-0.41898529052734373,-0.16280571289062498,9.935936889648437,30.69470588235294
2025-10-15T19:59:42.638431,31.87786259541985,-4.9465648854961835,-15.786259541984732,0.8188169677734375,-0.38786066894531246,9.5384994140625,30.64764705882353
2025-10-15T19:59:42.660620,32.02290076335878,-4.259541984732825,-15.770992366412214,0.9864110839843749,-0.5434837768554687,9.830592016601562,30.60058823529412
2025-10-15T19:59:42.679696,30.82442748091603,-3.7404580152671754,-14.351145038167939,0.5410895751953124,0.28012159423828126,9.785102185058593,30.69470588235294
2025-10-15T19:59:42.699254,29.083969465648856,-2.8091603053435112,-13.389312977099237,0.6416460449218749,0.3064578125,9.983820922851562,30.64764705882353
2025-10-15T19:59:42.721918,24.954198473282442,-1.2290076335877862,-11.740458015267176,0.70868369140625,0.5770026000976562,9.988609326171874,30.741764705882353
2025-10-15T19:59:42.740953,19.732824427480917,-0.35877862595419846,-9.854961832061068,1.8626888916015625,0.9528922607421875,10.59194814453125,30.60058823529412
2025-10-15T19:59:42.759590,13.01526717557252,2.8091603053435112,-6.816793893129771,1.1348515869140625,0.3064578125,10.122684619140625,30.741764705882353
2025-10-15T19:59:42.782022,6.213740458015267,-1.0076335877862594,-4.603053435114504,0.2059013427734375,2.023100402832031,9.09796630859375,30.64764705882353
2025-10-15T19:59:42.801677,-6.0534351145038165,2.854961832061069,-1.984732824427481,0.47644613037109373,1.2641384765625,9.181763366699219,30.60058823529412
2025-10-15T19:59:42.820791,-12.450381679389313,2.7022900763358777,0.8015267175572519,0.7565677246093749,1.2401964599609374,8.44674345703125,30.741764705882353
2025-10-15T19:59:42.843296,-23.061068702290076,5.458015267175573,3.564885496183206,2.1116858642578125,1.2306196533203124,9.78031378173828,30.60058823529412
2025-10-15T19:59:42.862319,-33.37404580152672,4.083969465648855,5.656488549618321,0.7278373046875,0.603338818359375,8.980650427246093,30.60058823529412
2025-10-15T19:59:42.881843,-35.38931297709924,5.251908396946565,6.030534351145038,0.05985504150390625,1.426944189453125,8.935160595703124,30.64764705882353
2025-10-15T19:59:42.904237,-39.969465648854964,3.3740458015267176,7.511450381679389,0.814028564453125,0.29448680419921874,9.117119921875,30.741764705882353
2025-10-15T19:59:42.923298,-42.88549618320611,4.977099236641221,8.381679389312977,0.5985504150390625,0.22505495605468748,8.71489404296875,30.741764705882353
2025-10-15T19:59:42.941988,-42.93129770992366,3.0763358778625953,9.702290076335878,0.3447650390625,0.06703764648437499,8.655039001464843,30.64764705882353
2025-10-15T19:59:42.964221,-42.80916030534351,1.7786259541984732,7.694656488549619,0.7038952880859375,0.3758896606445312,8.91840118408203,30.741764705882353
2025-10-15T19:59:42.983256,-37.67175572519084,1.633587786259542,5.923664122137405,0.229843359375,0.5339069702148437,8.365340600585936,30.69470588235294
2025-10-15T19:59:43.002672,-32.12213740458015,-1.9312977099236641,3.068702290076336,0.19871873779296872,-0.6943184814453125,8.734047656249999,30.741764705882353
2025-10-15T19:59:43.025707,-24.84732824427481,-5.488549618320611,1.9541984732824427,0.296881005859375,-1.37906015625,7.702146740722656,30.69470588235294
2025-10-15T19:59:43.045765,-12.877862595419847,-4.847328244274809,-2.83206106870229,0.9504980590820312,-1.16837041015625,7.264007836914062,30.64764705882353
2025-10-15T19:59:43.064030,-7.290076335877862,-3.5114503816793894,-6.587786259541985,0.3016694091796875,-0.5315127685546874,8.451531860351562,30.553529411764707
2025-10-15T19:59:43.086373,4.259541984732825,-5.885496183206107,-8.198473282442748,-1.1659762084960936,-0.062249243164062495,9.370905297851563,30.64764705882353
2025-10-15T19:59:43.106251,10.076335877862595,-8.564885496183207,-10.419847328244275,1.5825672973632812,0.8667010009765624,10.40041201171875,30.69470588235294
2025-10-15T19:59:43.125169,16.68702290076336,3.2290076335877864,-14.954198473282442,0.08379705810546874,-0.20829554443359374,9.069235888671875,30.741764705882353
2025-10-15T19:59:43.147710,17.38167938931298,-2.282442748091603,-14.916030534351146,1.3958195678710936,-1.6256629272460936,10.965443603515624,30.64764705882353
2025-10-15T19:59:43.167074,19.50381679389313,-3.8244274809160306,-16.801526717557252,0.36391865234375,-0.5817910034179687,9.361328491210937,30.64764705882353
2025-10-15T19:59:43.185679,19.374045801526716,-1.633587786259542,-15.557251908396946,-0.36631285400390623,0.05027823486328125,10.912771166992187,30.64764705882353
2025-10-15T19:59:43.207969,21.778625954198475,0.19083969465648856,-16.541984732824428,-0.08379705810546874,1.4772224243164063,10.127473022460936,30.60058823529412
2025-10-15T19:59:43.227896,17.870229007633586,0.9923664122137404,-14.977099236641221,0.8738836059570312,-0.8116343627929687,10.419565624999999,30.553529411764707
2025-10-15T19:59:43.245704,14.083969465648854,3.9770992366412212,-15.183206106870228,0.4836287353515625,0.4333505004882812,10.149020837402343,30.60058823529412
2025-10-15T19:59:43.267713,12.389312977099237,4.824427480916031,-12.106870229007633,0.7398083129882812,-0.3806780639648437,10.702081420898438,30.60058823529412
2025-10-15T19:59:43.288453,5.229007633587786,5.816793893129771,-10.625954198473282,0.6679822631835937,0.45968671875,9.425971936035156,30.741764705882353
2025-10-15T19:59:43.305353,0.916030534351145,6.236641221374046,-8.145038167938932,0.8188169677734375,-0.12449848632812499,10.455478649902343,30.60058823529412
2025-10-15T19:59:43.327220,-6.854961832061068,8.65648854961832,-5.488549618320611,0.6200982299804687,1.1851298217773436,9.373299499511718,30.60058823529412
2025-10-15T19:59:43.348841,-5.916030534351145,10.259541984732824,-4.870229007633588,1.455674609375,-0.9935936889648437,9.562441430664062,30.553529411764707
2025-10-15T19:59:43.365780,-9.259541984732824,10.977099236641221,-2.786259541984733,0.9241618408203125,0.7110778930664062,9.588777648925781,30.64764705882353
2025-10-15T19:59:43.387552,-8.267175572519085,12.16030534351145,-1.549618320610687,1.2473790649414063,0.44053310546874996,8.664615808105468,30.741764705882353
2025-10-15T19:59:43.409571,-12.106870229007633,13.603053435114504,2.4580152671755724,-0.4477157104492187,2.5617957763671875,9.770736975097655,30.60058823529412
2025-10-15T19:59:43.426470,-14.236641221374045,12.206106870229007,-0.21374045801526717,-0.34715924072265625,-0.9864110839843749,8.322244970703125,30.64764705882353
2025-10-15T19:59:43.448482,-11.763358778625955,3.564885496183206,2.8473282442748094,0.7541735229492187,0.22744915771484372,10.20887587890625,30.69470588235294
2025-10-15T19:59:43.471411,-20.6793893129771,-1.1221374045801527,3.2442748091603053,0.17956512451171874,1.6328455322265625,10.005368737792969,30.60058823529412
2025-10-15T19:59:43.488402,-19.366412213740457,2.5572519083969465,3.8625954198473282,0.5458779785156249,-0.5243301635742187,8.712499841308594,30.64764705882353
2025-10-15T19:59:43.510254,-14.564885496183207,0.6030534351145038,0.8854961832061069,1.5083470458984374,-0.19871873779296872,8.528146313476562,30.64764705882353
2025-10-15T19:59:43.533719,-10.16030534351145,1.6030534351145038,-0.2595419847328244,0.47884033203125,-0.00239420166015625,8.28633194580078,30.553529411764707
2025-10-15T19:59:43.550635,-7.870229007633588,-5.106870229007634,-1.6717557251908397,0.5027823486328125,-0.4285620971679687,7.996633544921875,30.741764705882353
2025-10-15T19:59:43.571719,-3.687022900763359,-4.465648854961832,-3.816793893129771,0.12449848632812499,0.22505495605468748,9.85692823486328,30.60058823529412
2025-10-15T19:59:43.594915,-4.656488549618321,-2.2748091603053435,-2.3587786259541983,0.8188169677734375,-0.24660277099609373,8.789114294433594,30.69470588235294
2025-10-15T19:59:43.612717,-2.2519083969465647,-9.732824427480915,-3.854961832061069,0.373495458984375,0.26815058593749996,8.863334545898438,30.741764705882353
2025-10-15T19:59:43.632642,-3.198473282442748,-5.893129770992366,-3.732824427480916,0.28969840087890625,-0.16280571289062498,9.141061938476563,30.741764705882353
2025-10-15T19:59:43.655506,3.4656488549618323,-9.587786259541986,-7.2748091603053435,0.4333505004882812,0.11731588134765625,9.129090930175781,30.69470588235294
2025-10-15T19:59:43.674120,5.931297709923665,-10.282442748091603,-8.885496183206106,0.055066638183593745,-0.5626373901367188,8.99501563720703,30.64764705882353
2025-10-15T19:59:43.693132,10.198473282442748,-10.01526717557252,-11.17557251908397,1.1563994018554686,-0.1484405029296875,9.591171850585937,30.64764705882353
2025-10-15T19:59:43.715593,15.534351145038167,-15.603053435114504,-13.50381679389313,1.158793603515625,-2.607285607910156,9.519345800781249,30.60058823529412
2025-10-15T19:59:43.735045,17.709923664122137,-13.305343511450381,-14.625954198473282,0.16280571289062498,0.689530078125,9.536105212402344,30.69470588235294
2025-10-15T19:59:43.753260,15.732824427480915,-8.076335877862595,-15.221374045801527,2.1978771240234374,0.016759411621093748,8.329427575683594,30.69470588235294
2025-10-15T19:59:43.775458,14.511450381679388,-12.992366412213741,-12.717557251908397,-1.3359645263671873,1.8052280517578123,11.173739147949219,30.69470588235294
2025-10-15T19:59:43.795781,19.114503816793892,-8.641221374045802,-11.931297709923664,-0.5363011718749999,-0.6943184814453125,11.425130322265625,30.553529411764707
2025-10-15T19:59:43.813557,9.007633587786259,-7.091603053435114,-10.534351145038167,1.4604630126953124,0.3112462158203125,10.453084448242187,30.741764705882353
2025-10-15T19:59:43.835657,3.984732824427481,-5.099236641221374,-9.49618320610687,1.1827356201171875,0.7110778930664062,10.572794531249999,30.69470588235294
2025-10-15T19:59:43.857979,-3.8396946564885495,-1.0305343511450382,-5.740458015267175,0.3711012573242187,-0.6177040283203125,10.371681591796875,30.741764705882353
2025-10-15T19:59:43.874898,-4.068702290076335,2.381679389312977,-1.9618320610687023,1.37906015625,-0.6655880615234374,10.16338604736328,30.741764705882353
2025-10-15T19:59:43.896761,-3.564885496183206,5.1679389312977095,-3.366412213740458,1.3192051147460937,-1.0079588989257813,9.188945971679686,30.69470588235294
2025-10-15T19:59:43.919264,-1.9465648854961832,7.4961832061068705,-2.435114503816794,0.02154781494140625,0.488417138671875,10.939107385253905,30.64764705882353
2025-10-15T19:59:43.936158,0.9312977099236641,7.083969465648855,-1.3969465648854962,3.1004911499023438,-0.2705447875976562,9.89523546142578,30.60058823529412
2025-10-15T19:59:43.958171,-0.48854961832061067,11.946564885496183,-1.702290076335878,0.5458779785156249,-0.05027823486328125,9.260772021484375,30.64764705882353
2025-10-15T19:59:43.981471,-3.618320610687023,12.534351145038167,-0.21374045801526717,0.06464344482421874,0.39983167724609375,9.354145886230468,30.69470588235294
2025-10-15T19:59:43.998345,-5.526717557251908,12.694656488549619,1.5419847328244274,0.5793968017578125,1.0366893188476562,9.387664709472656,30.64764705882353
2025-10-15T19:59:44.019899,-11.50381679389313,15.007633587786259,2.931297709923664,0.028730419921875,1.5251064575195312,8.595183959960938,30.69470588235294
2025-10-15T19:59:44.043274,-26.31297709923664,8.84732824427481,4.4961832061068705,-0.6440402465820312,0.8164227661132812,6.193799694824218,30.60058823529412
2025-10-15T19:59:44.060150,-26.251908396946565,-1.1603053435114503,4.00763358778626,0.1580173095703125,0.03591302490234375,8.781931689453124,30.741764705882353
2025-10-15T19:59:44.080841,-31.31297709923664,7.305343511450381,6.7251908396946565,0.5195417602539062,0.70868369140625,9.229647399902344,30.741764705882353
2025-10-15T19:59:44.103852,-24.931297709923665,10.49618320610687,6.129770992366412,0.5770026000976562,0.3758896606445312,8.590395556640624,30.60058823529412
2025-10-15T19:59:44.120770,-30.603053435114504,3.435114503816794,6.694656488549619,0.22266075439453123,0.5578489868164063,8.135497241210937,30.69470588235294
2025-10-15T19:59:44.141548,-28.709923664122137,-1.0076335877862594,5.557251908396947,0.5003881469726562,-0.009576806640625,9.392453112792968,30.69470588235294
2025-10-15T19:59:44.164559,-26.51145038167939,1.984732824427481,5.022900763358779,0.6703764648437499,-0.22266075439453123,9.052476477050782,30.64764705882353
2025-10-15T19:59:44.182286,-18.99236641221374,5.137404580152672,2.381679389312977,0.3687070556640625,-0.3399766357421875,8.398859423828124,30.741764705882353
2025-10-15T19:59:44.202113,-19.435114503816795,-3.2900763358778624,0.9083969465648855,0.24899697265624998,-0.354341845703125,8.607154968261717,30.69470588235294
2025-10-15T19:59:44.224789,-8.938931297709924,-5.801526717557252,-2.4427480916030535,0.8116343627929687,-1.0534487304687499,9.548076220703125,30.69470588235294
2025-10-15T19:59:44.243823,1.2671755725190839,0.12213740458015267,-5.564885496183206,0.7206546997070312,-0.6081272216796875,8.690952026367187,30.741764705882353
2025-10-15T19:59:44.262399,9.694656488549619,-3.9160305343511452,-9.442748091603054,0.023942016601562498,-1.1731588134765625,8.109161022949218,30.60058823529412
2025-10-15T19:59:44.284750,18.46564885496183,-13.48091603053435,-12.412213740458014,-0.7781155395507812,-1.4724340209960938,8.621520178222656,30.741764705882353
2025-10-15T19:59:44.304617,25.091603053435115,-9.541984732824428,-13.900763358778626,0.6368576416015624,-1.0845733520507812,9.871293444824218,30.69470588235294
2025-10-15T19:59:44.322378,32.3587786259542,-8.13740458015267,-16.80916030534351,0.39264907226562495,-0.29927520751953124,9.835380419921874,30.69470588235294
2025-10-15T19:59:44.344421,37.19847328244275,-5.541984732824427,-19.17557251908397,1.3431471313476562,-0.229843359375,10.050858569335936,30.64764705882353
2025-10-15T19:59:44.365145,46.29770992366412,-8.068702290076336,-18.66412213740458,-1.0390835205078124,0.8786720092773437,11.279084020996093,30.69470588235294
2025-10-15T19:59:44.382230,40.32824427480916,-4.015267175572519,-17.404580152671755,0.373495458984375,0.37828386230468747,8.154650854492187,30.60058823529412
2025-10-15T19:59:44.404426,35.49618320610687,-1.015267175572519,-16.206106870229007,-0.5985504150390625,1.7956512451171873,9.732429748535155,30.60058823529412
2025-10-15T19:59:44.426450,38.656488549618324,-4.763358778625954,-16.916030534351144,-0.8283937744140625,-0.49799394531249996,10.66137999267578,30.64764705882353
2025-10-15T19:59:44.443489,28.938931297709924,-3.4732824427480917,-14.229007633587786,1.8938135131835936,0.7972691528320313,10.105925207519531,30.69470588235294
2025-10-15T19:59:44.465419,20.053435114503817,0.04580152671755725,-10.51908396946565,1.369483349609375,1.0510545288085937,10.658985791015624,30.69470588235294
2025-10-15T19:59:44.488290,7.786259541984733,4.190839694656488,-6.923664122137405,1.0845733520507812,2.118868469238281,10.527304699707031,30.64764705882353
2025-10-15T19:59:44.505325,-10.030534351145038,3.7786259541984735,-2.4885496183206106,0.4165910888671875,0.7422025146484375,9.842563024902343,30.64764705882353
2025-10-15T19:59:44.527090,-19.358778625954198,6.969465648854962,0.7709923664122137,1.7573440185546874,1.0103531005859374,10.04846436767578,30.69470588235294
2025-10-15T19:59:44.550398,-22.53435114503817,13.603053435114504,1.7251908396946565,3.7110125732421873,1.0941501586914062,11.291055029296874,30.69470588235294
2025-10-15T19:59:44.567322,-24.786259541984734,9.82442748091603,3.595419847328244,1.6328455322265625,-0.076614453125,9.720458740234374,30.64764705882353
2025-10-15T19:59:44.588036,-27.52671755725191,9.67175572519084,2.0763358778625953,0.8762778076171874,-1.2808978881835937,9.088389501953124,30.64764705882353
2025-10-15T19:59:44.611052,-26.396946564885496,10.801526717557252,5.061068702290076,1.6927005737304686,-0.055066638183593745,9.617508068847656,30.69470588235294
2025-10-15T19:59:44.628847,-30.84732824427481,1.786259541984733,6.1679389312977095,0.5434837768554687,0.2442085693359375,7.903259680175781,30.741764705882353
2025-10-15T19:59:44.648684,-32.36641221374046,1.7557251908396947,6.114503816793893,0.7948749511718749,-0.055066638183593745,8.609549169921875,30.60058823529412
2025-10-15T19:59:44.671413,-30.480916030534353,3.885496183206107,4.977099236641221,0.16519991455078123,-0.01915361328125,7.773972790527344,30.60058823529412
2025-10-15T19:59:44.690842,-23.091603053435115,3.0610687022900764,4.419847328244275,0.6368576416015624,0.5027823486328125,8.698134631347656,30.69470588235294
2025-10-15T19:59:44.709515,-19.984732824427482,-0.366412213740458,2.801526717557252,1.0175357055664063,0.6655880615234374,8.609549169921875,30.60058823529412
2025-10-15T19:59:44.731951,-17.213740458015266,-1.3129770992366412,0.816793893129771,0.32082302246093747,-1.1372457885742187,8.987833032226561,30.741764705882353
2025-10-15T19:59:44.751901,-10.465648854961833,1.8244274809160306,-1.5038167938931297,0.5674257934570313,-0.3064578125,8.633491186523438,30.60058823529412
2025-10-15T19:59:44.770536,-5.1679389312977095,-2.4198473282442747,-3.5877862595419847,0.45010991210937495,-0.17238251953125,9.176974963378905,30.64764705882353
2025-10-15T19:59:44.793010,-0.15267175572519084,-6.106870229007634,-7.312977099236641,0.603338818359375,-0.06943184814453125,9.603142858886718,30.64764705882353
2025-10-15T19:59:44.812957,-0.9847328244274809,-6.229007633587786,-5.526717557251908,0.8738836059570312,-0.10773907470703124,10.32379755859375,30.69470588235294
2025-10-15T19:59:44.830748,1.9312977099236641,-3.549618320610687,-9.229007633587786,0.41419688720703124,0.00239420166015625,8.820238916015624,30.60058823529412
2025-10-15T19:59:44.852926,1.2671755725190839,-3.969465648854962,-8.954198473282442,0.4070142822265625,-0.39743747558593745,9.763554370117188,30.69470588235294
2025-10-15T19:59:44.873690,3.1603053435114505,-5.770992366412214,-12.129770992366412,0.5530605834960938,0.2657563842773437,9.79946739501953,30.64764705882353
2025-10-15T19:59:44.890751,6.290076335877862,-3.2213740458015265,-13.992366412213741,0.0718260498046875,-2.4684219116210935,9.457096557617186,30.64764705882353
2025-10-15T19:59:44.912931,11.312977099236642,-7.480916030534351,-14.282442748091603,0.21787235107421873,0.5770026000976562,9.732429748535155,30.741764705882353
2025-10-15T19:59:44.934151,9.84732824427481,-7.6106870229007635,-17.366412213740457,1.6424223388671875,-1.7717092285156248,10.065223779296874,30.60058823529412
2025-10-15T19:59:44.951861,11.305343511450381,-2.6030534351145036,-16.52671755725191,0.699106884765625,0.48123453369140623,10.498574279785156,30.69470588235294
2025-10-15T19:59:44.973955,10.786259541984732,-3.3587786259541983,-16.442748091603054,-0.7972691528320313,-1.3718775512695311,9.397241516113281,30.741764705882353
2025-10-15T19:59:44.994725,5.00763358778626,1.7786259541984732,-15.412213740458014,1.0486603271484374,0.5315127685546874,10.007762939453125,30.69470588235294
2025-10-15T19:59:45.011775,1.8854961832061068,0.31297709923664124,-11.419847328244275,0.6967126831054687,-0.028730419921875,9.928754284667969,30.69470588235294
2025-10-15T19:59:45.033947,-3.6564885496183206,1.6946564885496183,-7.549618320610687,1.5251064575195312,-0.01915361328125,10.223241088867187,30.60058823529412
2025-10-15T19:59:45.056142,-1.900763358778626,2.6793893129770994,-8.702290076335878,1.0678139404296874,0.1867477294921875,9.083601098632812,30.69470588235294
2025-10-15T19:59:45.073091,-1.2213740458015268,3.4732824427480917,-6.419847328244275,-0.36152445068359373,0.24899697265624998,10.172962854003906,30.741764705882353
2025-10-15T19:59:45.095129,-0.09923664122137404,4.022900763358779,-6.076335877862595,0.34237083740234375,0.8643067993164062,11.312602844238281,30.69470588235294
2025-10-15T19:59:45.138185,0.24427480916030533,2.633587786259542,-3.877862595419847,0.6679822631835937,-0.22266075439453123,8.51617530517578,30.69470588235294
2025-10-15T19:59:45.155109,-2.0763358778625953,4.015267175572519,-2.351145038167939,0.7230489013671875,-0.1388636962890625,8.750807067871094,30.64764705882353
2025-10-15T19:59:45.177481,-6.099236641221374,3.3053435114503817,-1.2290076335877862,1.139639990234375,0.8714894042968749,8.839392529296875,30.64764705882353
2025-10-15T19:59:45.200767,-6.221374045801527,1.2061068702290076,0.3969465648854962,0.4908113403320312,0.201112939453125,9.528922607421874,30.69470588235294
2025-10-15T19:59:45.217712,-10.0,5.1603053435114505,1.6793893129770991,0.28490999755859375,0.8954314208984374,8.832209924316405,30.741764705882353
2025-10-15T19:59:45.239507,-9.80916030534351,5.366412213740458,2.6564885496183206,1.5969325073242187,-0.3064578125,8.865728747558594,30.69470588235294
2025-10-15T19:59:45.262593,-15.351145038167939,2.4198473282442747,3.427480916030534,1.0989385620117187,-0.20350714111328125,8.300697155761718,30.64764705882353
2025-10-15T19:59:45.279501,-14.893129770992367,3.9770992366412212,2.8244274809160306,0.5626373901367188,-0.15083470458984374,8.463502868652343,30.60058823529412
2025-10-15T19:59:45.300821,-12.366412213740459,5.702290076335878,3.8625954198473282,0.4285620971679687,-0.47884033203125,8.578424548339843,30.69470588235294
2025-10-15T19:59:45.323832,-9.83206106870229,3.732824427480916,0.6106870229007634,0.16519991455078123,0.26336218261718747,8.607154968261717,30.69470588235294
2025-10-15T19:59:45.341258,-8.17557251908397,1.5801526717557253,-0.7099236641221374,0.32561142578124996,-0.22266075439453123,9.452308154296874,30.64764705882353
2025-10-15T19:59:45.361867,-6.1679389312977095,3.3053435114503817,-2.4580152671755724,0.39983167724609375,-0.229843359375,9.557653027343749,30.741764705882353
2025-10-15T19:59:45.385018,-3.6106870229007635,2.6412213740458017,-2.236641221374046,0.12689268798828124,-0.4213794921875,9.112331518554686,30.64764705882353
2025-10-15T19:59:45.403382,1.1221374045801527,0.5114503816793893,-6.206106870229007,0.05027823486328125,-0.3495534423828125,9.10993731689453,30.69470588235294
2025-10-15T19:59:45.423035,5.7251908396946565,0.44274809160305345,-8.603053435114504,0.062249243164062495,-0.4836287353515625,9.291896643066405,30.64764705882353
2025-10-15T19:59:45.446010,11.244274809160306,-0.9923664122137404,-10.938931297709924,0.11013327636718749,-0.47165772705078124,9.241618408203124,30.69470588235294
2025-10-15T19:59:45.465251,15.80916030534351,-3.3435114503816794,-12.679389312977099,1.24498486328125,-0.19871873779296872,9.126696728515624,30.741764705882353
2025-10-15T19:59:45.484165,20.778625954198475,-3.0916030534351147,-14.305343511450381,0.9457096557617187,-1.189918225097656,9.79946739501953,30.64764705882353
2025-10-15T19:59:45.506806,21.755725190839694,-1.4274809160305344,-15.648854961832061,0.4429273071289062,1.0127473022460938,9.337386474609374,30.64764705882353
2025-10-15T19:59:45.526763,24.572519083969464,-1.9618320610687023,-15.374045801526718,1.484405029296875,0.40462008056640625,10.062829577636718,30.64764705882353
2025-10-15T19:59:45.544530,26.091603053435115,-3.267175572519084,-16.34351145038168,0.27293898925781246,1.697488977050781,10.539275708007812,30.64764705882353
2025-10-15T19:59:45.566531,25.900763358778626,-1.1755725190839694,-16.30534351145038,2.01112939453125,-1.0199299072265624,10.350133776855468,30.741764705882353
2025-10-15T19:59:45.587329,20.625954198473284,-3.6259541984732824,-14.053435114503817,-0.028730419921875,3.3494881225585935,9.816226806640625,30.69470588235294
2025-10-15T19:59:45.604290,13.908396946564885,1.4351145038167938,-13.450381679389313,3.047818713378906,-2.9544448486328125,10.666168395996094,30.60058823529412
2025-10-15T19:59:45.626342,8.076335877862595,-1.2213740458015268,-8.732824427480915,0.63206923828125,2.224213342285156,9.330203869628905,30.64764705882353
2025-10-15T19:59:45.647925,-3.8396946564885495,3.145038167938931,-4.656488549618321,0.3327940307617187,1.1133037719726562,10.905588562011719,30.69470588235294
2025-10-15T19:59:45.664808,-13.007633587786259,4.015267175572519,-2.7938931297709924,1.714248388671875,2.04943662109375,9.605537060546874,30.741764705882353
2025-10-15T19:59:45.686576,-17.38167938931298,5.305343511450381,-0.08396946564885496,1.7693150268554687,0.031124621582031248,10.072406384277343,30.64764705882353
2025-10-15T19:59:45.708630,-24.641221374045802,1.0,0.5267175572519084,-1.668758557128906,1.4915876342773438,8.674192614746094,30.69470588235294
2025-10-15T19:59:45.725501,-28.870229007633586,2.877862595419847,3.5343511450381677,0.239420166015625,-1.01514150390625,9.713276135253906,30.64764705882353
2025-10-15T19:59:45.747492,-27.946564885496183,3.2748091603053435,1.3587786259541985,2.0278888061523435,0.6200982299804687,7.788338000488281,30.69470588235294
2025-10-15T19:59:45.770357,-26.908396946564885,4.580152671755725,2.6259541984732824,0.3136404174804687,-1.6136919189453125,8.604760766601562,30.741764705882353
2025-10-15T19:59:45.787229,-25.541984732824428,1.6030534351145038,0.9389312977099237,0.3806780639648437,0.4333505004882812,7.800309008789062,30.69470588235294
2025-10-15T19:59:45.809288,-18.129770992366414,0.648854961832061,0.8931297709923665,0.4070142822265625,-0.430956298828125,9.679757312011718,30.741764705882353
2025-10-15T19:59:45.832429,-13.488549618320612,-0.7022900763358778,-1.1908396946564885,-0.0718260498046875,0.36152445068359373,8.626308581542968,30.64764705882353
2025-10-15T19:59:45.849371,-4.770992366412214,-2.6793893129770994,-4.2748091603053435,-0.38307226562499996,-1.2785036865234374,7.4411787597656245,30.69470588235294
2025-10-15T19:59:45.870456,0.16793893129770993,-4.801526717557252,-4.786259541984733,-0.45968671875,-0.10773907470703124,8.59997236328125,30.741764705882353
2025-10-15T19:59:45.893365,3.7022900763358777,-4.633587786259542,-6.351145038167939,0.33758243408203126,0.8738836059570312,9.291896643066405,30.64764705882353
2025-10-15T19:59:45.910344,-0.030534351145038167,-3.4580152671755724,-5.824427480916031,-0.5123591552734374,0.5865794067382812,9.045293872070312,30.64764705882353
2025-10-15T19:59:45.931583,-5.213740458015267,-9.374045801526718,-6.564885496183206,1.388636962890625,0.7876923461914062,9.267954626464844,30.741764705882353
2025-10-15T19:59:45.954636,-6.694656488549619,-7.297709923664122,-5.450381679389313,-0.9624690673828125,0.18914193115234373,8.55448253173828,30.741764705882353
2025-10-15T19:59:45.972386,-9.122137404580153,-6.541984732824427,-8.412213740458014,-0.3591302490234375,0.6775590698242188,9.49300958251953,30.64764705882353
2025-10-15T19:59:45.992368,-6.679389312977099,-8.572519083969466,-9.396946564885496,0.8810662109374999,-0.40222587890625,9.718064538574218,30.64764705882353
2025-10-15T19:59:46.015278,-5.358778625954199,-7.908396946564886,-11.801526717557252,0.1388636962890625,0.6153098266601562,9.485826977539062,30.741764705882353
2025-10-15T19:59:46.033896,-0.3893129770992366,-7.32824427480916,-12.84732824427481,0.47884033203125,-0.5722141967773438,9.521740002441407,30.69470588235294
2025-10-15T19:59:46.053037,2.282442748091603,-8.114503816793894,-13.786259541984732,0.5770026000976562,-0.009576806640625,10.060435375976562,30.741764705882353
2025-10-15T19:59:46.075541,3.2061068702290076,-7.038167938931298,-14.282442748091603,0.8307879760742187,-0.7038952880859375,9.986215124511718,30.64764705882353
2025-10-15T19:59:46.094595,6.709923664122138,-2.8396946564885495,-15.13740458015267,0.7206546997070312,-0.6153098266601562,9.81862100830078,30.60058823529412
2025-10-15T19:59:46.113306,8.618320610687023,-1.6488549618320612,-14.564885496183207,0.7326257080078125,-0.3447650390625,9.955090502929687,30.788823529411765
2025-10-15T19:59:46.135709,9.206106870229007,-0.9541984732824428,-13.755725190839694,0.6057330200195312,-0.277727392578125,9.414000927734374,30.69470588235294
2025-10-15T19:59:46.155189,12.923664122137405,0.5114503816793893,-14.618320610687023,0.9457096557617187,-0.8571241943359375,9.404424121093749,30.60058823529412
2025-10-15T19:59:46.173417,15.488549618320612,3.0839694656488548,-12.633587786259541,0.8116343627929687,0.36631285400390623,9.928754284667969,30.788823529411765
2025-10-15T19:59:46.195691,15.83206106870229,3.8244274809160306,-11.473282442748092,0.7134720947265625,0.6584054565429687,8.95670841064453,30.64764705882353
2025-10-15T19:59:46.216073,15.038167938931299,-3.7480916030534353,-10.633587786259541,1.4053963745117186,0.3854664672851562,10.472238061523436,30.69470588235294
2025-10-15T19:59:46.233463,9.488549618320612,3.2442748091603053,-8.49618320610687,1.0007762939453124,0.0143652099609375,9.830592016601562,30.64764705882353
2025-10-15T19:59:46.255840,6.9541984732824424,6.572519083969466,-7.3893129770992365,0.842758984375,0.2753331909179687,9.756371765136718,30.64764705882353
2025-10-15T19:59:46.277085,2.351145038167939,9.473282442748092,-6.557251908396947,0.47644613037109373,0.7206546997070312,9.624690673828125,30.741764705882353
2025-10-15T19:59:46.293972,-1.4198473282442747,11.526717557251908,-4.984732824427481,0.3495534423828125,1.0295067138671874,11.092336291503905,30.64764705882353
2025-10-15T19:59:46.316160,-9.908396946564885,8.15267175572519,-1.6641221374045803,1.1180921752929687,0.9193734375,8.429984045410155,30.64764705882353
2025-10-15T19:59:46.337838,-11.603053435114504,12.007633587786259,-1.1450381679389312,0.9720458740234375,0.6296750366210937,10.481814868164061,30.741764705882353
2025-10-15T19:59:46.354721,-24.916030534351144,16.137404580152673,2.198473282442748,1.5346832641601562,0.7015010864257812,9.402029919433593,30.69470588235294
2025-10-15T19:59:46.376907,-25.755725190839694,11.938931297709924,0.1297709923664122,0.8906430175781249,0.6105214233398437,9.425971936035156,30.69470588235294
2025-10-15T19:59:46.399011,-33.85496183206107,17.580152671755727,3.8702290076335877,-0.01915361328125,-0.9433154541015625,7.426813549804687,30.64764705882353
2025-10-15T19:59:46.415937,-33.67175572519084,8.16793893129771,1.984732824427481,-0.00718260498046875,1.5298948608398437,7.465120776367187,30.69470588235294
2025-10-15T19:59:46.438068,-36.86259541984733,4.969465648854962,1.9770992366412214,0.19393033447265623,-0.6607996582031249,9.323021264648437,30.69470588235294
2025-10-15T19:59:46.460599,-33.587786259541986,6.221374045801527,3.900763358778626,0.44053310546874996,0.7134720947265625,9.126696728515624,30.64764705882353
2025-10-15T19:59:46.477505,-27.80916030534351,11.83969465648855,1.0,0.2346317626953125,-0.6392518432617187,9.34696328125,30.69470588235294
2025-10-15T19:59:46.499738,-27.801526717557252,10.366412213740459,0.3435114503816794,-0.8643067993164062,-0.3687070556640625,6.928819604492187,30.60058823529412
2025-10-15T19:59:46.522723,-15.297709923664122,-0.25190839694656486,-3.2900763358778624,0.5530605834960938,-0.8882488159179687,9.648632690429688,30.741764705882353
2025-10-15T19:59:46.539620,-10.022900763358779,-0.3816793893129771,-6.221374045801527,-0.5722141967773438,-1.2042834350585936,8.971073620605468,30.69470588235294
2025-10-15T19:59:46.561884,-0.9923664122137404,2.404580152671756,-9.114503816793894,-0.4477157104492187,-1.1851298217773436,9.244012609863281,30.741764705882353
2025-10-15T19:59:46.585479,4.66412213740458,-1.8549618320610688,-11.725190839694656,0.1771709228515625,-0.9792284790039062,8.896853369140624,30.60058823529412
2025-10-15T19:59:46.602374,13.282442748091603,-5.824427480916031,-13.854961832061068,0.20829554443359374,-0.8307879760742187,9.648632690429688,30.64764705882353
2025-10-15T19:59:46.623843,18.938931297709924,-4.305343511450381,-15.13740458015267,-0.35194764404296874,-0.9600748657226562,9.208099584960937,30.60058823529412
2025-10-15T19:59:46.646954,25.389312977099237,-2.6030534351145036,-16.206106870229007,-1.2473790649414063,-0.7350199096679687,9.507374792480467,30.64764705882353
2025-10-15T19:59:46.663911,30.236641221374047,-8.816793893129772,-16.786259541984734,1.0941501586914062,-0.3447650390625,8.597578161621094,30.64764705882353
