timestamp,gyro_x,gyro_y,gyro_z,acc_x,acc_y,acc_z,temp
2025-10-20T14:30:44.667811,-6.145038167938932,0.8778625954198473,0.4732824427480916,0.143652099609375,1.0917559570312498,9.373299499511718,29.377058823529413
2025-10-20T14:30:44.684867,-7.480916030534351,0.7938931297709924,0.648854961832061,-0.06703764648437499,1.2114660400390624,9.394847314453125,29.424117647058825
2025-10-20T14:30:44.701743,-9.17557251908397,0.816793893129771,0.9007633587786259,-0.05746083984375,1.2210428466796874,9.473855969238281,29.330000000000002
2025-10-20T14:30:44.718562,-10.511450381679388,0.6412213740458015,1.0610687022900764,-0.14125789794921875,1.1635820068359375,9.512163195800781,29.377058823529413
2025-10-20T14:30:44.735352,-11.603053435114504,0.7786259541984732,0.9007633587786259,-0.05985504150390625,1.1156979736328125,9.320627062988281,29.471176470588237
2025-10-20T14:30:44.752146,-12.045801526717558,0.9618320610687023,0.8320610687022901,-0.15322890625,1.1061211669921875,9.394847314453125,29.377058823529413
2025-10-20T14:30:44.768947,-12.51908396946565,1.0687022900763359,0.9541984732824428,-0.07900865478515624,0.9864110839843749,9.37808790283203,29.330000000000002
2025-10-20T14:30:44.785753,-13.145038167938932,1.0076335877862594,0.8091603053435115,-0.028730419921875,0.8834604125976562,9.3852705078125,29.330000000000002
2025-10-20T14:30:44.802540,-13.65648854961832,1.0305343511450382,0.8473282442748091,-0.12210428466796874,1.0606313354492187,9.33978067626953,29.330000000000002
2025-10-20T14:30:44.819316,-13.763358778625955,1.1603053435114503,0.6641221374045801,-0.14604630126953125,0.8595183959960937,9.361328491210937,29.424117647058825
2025-10-20T14:30:44.836090,-13.198473282442748,1.2061068702290076,0.42748091603053434,-0.03591302490234375,1.0223241088867188,9.296685046386719,29.330000000000002
2025-10-20T14:30:44.852863,-12.786259541984732,1.1984732824427482,0.4198473282442748,-0.10295067138671875,0.8451531860351562,9.323021264648437,29.471176470588237
2025-10-20T14:30:44.869647,-11.908396946564885,1.0534351145038168,0.25190839694656486,-0.28969840087890625,0.8355763793945312,9.387664709472656,29.377058823529413
2025-10-20T14:30:44.886442,-11.122137404580153,1.0381679389312977,0.05343511450381679,-0.09337386474609374,0.814028564453125,9.425971936035156,29.377058823529413
2025-10-20T14:30:44.903231,-10.427480916030534,1.1526717557251909,0.04580152671755725,-0.14604630126953125,0.7493851196289062,9.495403784179686,29.377058823529413
2025-10-20T14:30:44.920013,-9.458015267175572,0.9236641221374046,-0.1297709923664122,-0.06464344482421874,0.7493851196289062,9.30147344970703,29.28294117647059
2025-10-20T14:30:44.936800,-8.061068702290076,0.6412213740458015,-0.31297709923664124,-0.023942016601562498,0.6847416748046875,9.215282189941405,29.471176470588237
2025-10-20T14:30:44.953582,-6.679389312977099,0.6335877862595419,-0.35877862595419846,-0.15083470458984374,0.6536170532226562,9.042899670410156,29.330000000000002
2025-10-20T14:30:44.970356,-5.061068702290076,0.549618320610687,-0.7938931297709924,0.06943184814453125,0.6943184814453125,9.327809667968749,29.330000000000002
2025-10-20T14:30:44.987129,-3.6717557251908395,0.4580152671755725,-1.083969465648855,0.10295067138671875,0.5961562133789062,9.260772021484375,29.424117647058825
2025-10-20T14:30:45.003902,-2.549618320610687,0.2824427480916031,-0.816793893129771,0.1197100830078125,0.6248866333007812,9.306261853027344,29.424117647058825
2025-10-20T14:30:45.020690,-1.4427480916030535,0.2366412213740458,-1.0610687022900764,0.16280571289062498,0.7230489013671875,9.30147344970703,29.424117647058825
2025-10-20T14:30:45.037470,-0.5801526717557252,0.1297709923664122,-0.8854961832061069,0.16041151123046873,0.7230489013671875,9.332598071289063,29.330000000000002
2025-10-20T14:30:45.054242,0.6259541984732825,0.3053435114503817,-1.0458015267175573,0.1149216796875,0.5961562133789062,9.22485899658203,29.424117647058825
2025-10-20T14:30:45.071027,1.5725190839694656,0.5114503816793893,-0.9541984732824428,0.0718260498046875,0.6943184814453125,9.26316622314453,29.330000000000002
2025-10-20T14:30:45.087824,2.2290076335877864,0.3969465648854962,-0.7633587786259542,0.21787235107421873,0.5698199951171875,9.234435803222656,29.424117647058825
2025-10-20T14:30:45.104617,2.7557251908396947,0.366412213740458,-0.6335877862595419,0.19871873779296872,0.4836287353515625,9.306261853027344,29.377058823529413
2025-10-20T14:30:45.121393,3.099236641221374,0.4580152671755725,-0.5114503816793893,0.22266075439453123,0.51714755859375,9.112331518554686,29.377058823529413
2025-10-20T14:30:45.138174,3.366412213740458,0.2595419847328244,-0.31297709923664124,0.21068974609375,0.5123591552734374,9.244012609863281,29.377058823529413
2025-10-20T14:30:45.154955,3.5114503816793894,0.22900763358778625,-1.9541984732824427,0.14604630126953125,0.5482721801757812,9.239224206542968,29.377058823529413
2025-10-20T14:30:45.171760,3.7404580152671754,0.015267175572519083,0.022900763358778626,0.17477672119140625,0.5219359619140624,9.210493786621093,29.377058823529413
2025-10-20T14:30:45.188551,3.8396946564885495,0.16793893129770993,-0.16030534351145037,0.13407529296874998,0.5410895751953124,9.200916979980468,29.424117647058825
2025-10-20T14:30:45.205328,3.763358778625954,1.916030534351145,-0.2366412213740458,0.105344873046875,0.622492431640625,9.052476477050782,29.424117647058825
2025-10-20T14:30:45.222100,3.312977099236641,-0.10687022900763359,-0.11450381679389313,0.05746083984375,0.5817910034179687,9.282319836425781,29.424117647058825
2025-10-20T14:30:45.238874,2.8244274809160306,-0.11450381679389313,-0.2900763358778626,0.12689268798828124,0.565031591796875,9.248801013183593,29.424117647058825
2025-10-20T14:30:45.255646,2.3435114503816794,-0.08396946564885496,-0.5343511450381679,0.10773907470703124,0.5434837768554687,9.33978067626953,29.330000000000002
2025-10-20T14:30:45.272443,2.236641221374046,0.015267175572519083,-0.6106870229007634,0.13646949462890623,0.5722141967773438,9.102754711914063,29.330000000000002
2025-10-20T14:30:45.289286,1.534351145038168,0.022900763358778626,-0.9923664122137404,0.047884033203124995,0.565031591796875,9.208099584960937,29.471176470588237
2025-10-20T14:30:45.306077,1.183206106870229,0.07633587786259542,-1.4427480916030535,0.028730419921875,0.5817910034179687,9.291896643066405,29.377058823529413
2025-10-20T14:30:45.322849,0.8015267175572519,-0.05343511450381679,-1.5877862595419847,-0.009576806640625,0.6272808349609375,9.176974963378905,29.377058823529413
2025-10-20T14:30:45.339624,0.32061068702290074,0.11450381679389313,-2.0229007633587788,-0.1149216796875,0.6177040283203125,9.277531433105468,29.377058823529413
2025-10-20T14:30:45.356396,0.08396946564885496,-0.2900763358778626,-2.099236641221374,-0.13407529296874998,0.5985504150390625,9.129090930175781,29.377058823529413
2025-10-20T14:30:45.373168,-0.4122137404580153,-0.2595419847328244,-2.3435114503816794,-0.15562310791015624,0.63206923828125,9.222464794921875,29.28294117647059
2025-10-20T14:30:45.389942,-1.0687022900763359,-0.3816793893129771,-2.6259541984732824,-0.13407529296874998,0.7254431030273437,9.215282189941405,29.377058823529413
2025-10-20T14:30:45.406715,-0.10687022900763359,-0.5877862595419847,-2.7480916030534353,-0.1580173095703125,0.7829039428710937,9.34696328125,29.471176470588237
2025-10-20T14:30:45.423487,-3.267175572519084,-0.6564885496183206,-2.8244274809160306,-0.06464344482421874,0.7805097412109374,9.334992272949219,29.424117647058825
2025-10-20T14:30:45.440259,-4.427480916030534,-0.6564885496183206,-3.1603053435114505,-0.13168109130859373,0.7685387329101562,9.332598071289063,29.330000000000002
2025-10-20T14:30:45.457031,-5.404580152671755,-0.48854961832061067,-3.0916030534351147,-0.105344873046875,0.7996633544921875,9.323021264648437,29.330000000000002
2025-10-20T14:30:45.473814,-6.122137404580153,-0.4351145038167939,-3.1908396946564888,-0.02633621826171875,0.7541735229492187,9.37808790283203,29.330000000000002
2025-10-20T14:30:45.490615,-7.358778625954199,-0.5038167938931297,-3.2900763358778624,0.0909796630859375,0.6344634399414062,9.342174877929686,29.330000000000002
2025-10-20T14:30:45.507451,-8.129770992366412,-0.4198473282442748,-3.1297709923664123,0.105344873046875,0.7062894897460937,9.392453112792968,29.424117647058825
2025-10-20T14:30:45.524314,-9.106870229007633,-0.33587786259541985,-3.33587786259542,0.055066638183593745,0.6200982299804687,9.299079248046874,29.377058823529413
2025-10-20T14:30:45.541101,-9.145038167938932,-0.2824427480916031,-3.351145038167939,0.1149216796875,0.5913678100585937,9.409212524414063,29.330000000000002
2025-10-20T14:30:45.557882,-9.358778625954198,-0.3816793893129771,-3.3053435114503817,0.143652099609375,0.5410895751953124,9.375693701171874,29.330000000000002
2025-10-20T14:30:45.574659,-9.648854961832061,-0.35877862595419846,-3.2595419847328246,0.08140285644531249,0.5434837768554687,9.399635717773437,29.424117647058825
2025-10-20T14:30:45.591440,-9.51908396946565,-0.32061068702290074,-3.267175572519084,0.06703764648437499,0.5482721801757812,9.3852705078125,29.424117647058825
2025-10-20T14:30:45.608235,-9.13740458015267,-0.25190839694656486,-3.1374045801526718,0.1484405029296875,0.4261678955078125,9.332598071289063,29.424117647058825
2025-10-20T14:30:45.625018,-8.465648854961833,-0.40458015267175573,-3.0381679389312977,0.143652099609375,0.45489831542968745,9.30147344970703,29.330000000000002
2025-10-20T14:30:45.642840,-7.862595419847328,-0.4732824427480916,-3.122137404580153,-0.031124621582031248,0.4740519287109375,9.291896643066405,29.377058823529413
2025-10-20T14:30:45.659706,-7.488549618320611,-0.5801526717557252,-2.8091603053435112,-0.09337386474609374,0.5219359619140624,9.442731347656249,29.330000000000002
2025-10-20T14:30:45.676512,-7.0534351145038165,-0.6259541984732825,-2.931297709923664,-0.011971008300781249,0.5674257934570313,9.325415466308593,29.330000000000002
2025-10-20T14:30:45.693308,-6.442748091603053,-0.6641221374045801,-2.8091603053435112,-0.1388636962890625,0.5410895751953124,9.404424121093749,29.330000000000002
2025-10-20T14:30:45.710089,-6.068702290076335,-0.5801526717557252,-2.946564885496183,-0.076614453125,0.699106884765625,9.373299499511718,29.330000000000002
2025-10-20T14:30:45.726891,-5.114503816793893,-0.8625954198473282,-3.312977099236641,-0.05985504150390625,0.5434837768554687,9.205705383300781,29.377058823529413
2025-10-20T14:30:45.743673,-4.519083969465649,-0.6717557251908397,-3.5801526717557253,-0.076614453125,0.488417138671875,9.258377819824219,29.377058823529413
2025-10-20T14:30:45.760448,-3.6106870229007635,-0.8702290076335878,-2.015267175572519,0.009576806640625,0.5219359619140624,9.387664709472656,29.377058823529413
2025-10-20T14:30:45.777222,-2.763358778625954,-0.7938931297709924,-4.374045801526718,-0.016759411621093748,0.55545478515625,9.37808790283203,29.28294117647059
2025-10-20T14:30:45.794008,-2.236641221374046,-0.6412213740458015,-5.00763358778626,0.040701428222656245,0.5195417602539062,9.428366137695312,29.377058823529413
2025-10-20T14:30:45.810790,-1.549618320610687,-0.48091603053435117,-5.358778625954199,0.03591302490234375,0.5602431884765625,9.390058911132812,29.377058823529413
2025-10-20T14:30:45.827565,-1.2595419847328244,-0.44274809160305345,-5.854961832061068,0.0718260498046875,0.5722141967773438,9.33978067626953,29.377058823529413
2025-10-20T14:30:45.844337,-1.0534351145038168,-0.16030534351145037,-6.229007633587786,0.009576806640625,0.5722141967773438,9.251195214843749,29.377058823529413
2025-10-20T14:30:45.861134,-1.251908396946565,1.9465648854961832,-6.549618320610687,0.07900865478515624,0.469263525390625,9.375693701171874,29.330000000000002
2025-10-20T14:30:45.877931,-1.3358778625954197,-1.9465648854961832,-6.854961832061068,0.05985504150390625,0.5219359619140624,9.363722692871093,29.424117647058825
2025-10-20T14:30:45.894736,-1.83206106870229,0.24427480916030533,-7.1603053435114505,-0.06943184814453125,0.5243301635742187,9.490615380859374,29.330000000000002
2025-10-20T14:30:45.911523,-1.6564885496183206,0.4122137404580153,-7.450381679389313,0.01915361328125,0.5123591552734374,9.246406811523437,29.424117647058825
2025-10-20T14:30:45.928308,-2.0763358778625953,0.4198473282442748,-7.763358778625954,-0.062249243164062495,0.4644751220703125,9.193734375,29.330000000000002
2025-10-20T14:30:45.945093,-2.3969465648854964,0.32061068702290074,-8.221374045801527,-0.076614453125,0.49320554199218747,9.351751684570312,29.377058823529413
2025-10-20T14:30:45.961872,-3.3206106870229006,0.648854961832061,-8.320610687022901,-0.07422025146484375,0.4333505004882812,9.34696328125,29.377058823529413
2025-10-20T14:30:45.978645,-4.305343511450381,0.4732824427480916,-8.435114503816793,-0.12210428466796874,0.46208092041015625,9.361328491210937,29.377058823529413
2025-10-20T14:30:45.995418,-5.068702290076335,0.6793893129770993,-8.526717557251908,-0.076614453125,0.4429273071289062,9.253589416503905,29.377058823529413
2025-10-20T14:30:46.012196,-6.183206106870229,0.8091603053435115,-8.587786259541986,-0.16519991455078123,0.37828386230468747,9.306261853027344,29.471176470588237
2025-10-20T14:30:46.028974,-7.312977099236641,1.0381679389312977,-8.610687022900763,-0.16998831787109375,0.411802685546875,9.332598071289063,29.28294117647059
2025-10-20T14:30:46.045747,-8.549618320610687,1.2290076335877862,-8.458015267175572,-0.23223756103515625,0.35673604736328124,9.344569079589844,29.471176470588237
2025-10-20T14:30:46.062530,-9.473282442748092,1.3740458015267176,-8.435114503816793,-0.3232172241210937,0.3136404174804687,9.363722692871093,29.377058823529413
2025-10-20T14:30:46.079319,-10.51908396946565,1.6412213740458015,-8.106870229007633,-0.4285620971679687,0.25139117431640623,9.392453112792968,29.28294117647059
2025-10-20T14:30:46.096111,-11.648854961832061,1.4885496183206106,-7.6183206106870225,-0.49320554199218747,0.201112939453125,9.394847314453125,29.377058823529413
2025-10-20T14:30:46.112892,-12.618320610687023,1.5038167938931297,-7.061068702290076,-0.3758896606445312,0.12210428466796874,9.227253198242186,29.424117647058825
2025-10-20T14:30:46.129666,-13.297709923664122,1.4885496183206106,-6.603053435114504,-0.296881005859375,0.08858546142578125,9.358934289550781,29.330000000000002
2025-10-20T14:30:46.146441,-13.717557251908397,1.5877862595419847,-6.137404580152672,-0.16280571289062498,-0.05985504150390625,9.325415466308593,29.330000000000002
2025-10-20T14:30:46.163210,-13.954198473282442,1.5267175572519085,-5.587786259541985,-0.13407529296874998,-0.031124621582031248,9.222464794921875,29.424117647058825
2025-10-20T14:30:46.179981,-13.977099236641221,1.3969465648854962,-5.145038167938932,-0.01915361328125,-0.0909796630859375,9.251195214843749,29.330000000000002
2025-10-20T14:30:46.196754,-13.419847328244275,1.366412213740458,-4.931297709923665,0.0143652099609375,-0.1149216796875,9.318232861328125,29.424117647058825
2025-10-20T14:30:46.213525,-12.770992366412214,1.2061068702290076,-4.755725190839694,0.028730419921875,-0.14604630126953125,9.184157568359375,29.330000000000002
2025-10-20T14:30:46.230299,-11.86259541984733,1.1908396946564885,-4.564885496183206,0.09816226806640624,-0.10295067138671875,9.30147344970703,29.424117647058825
2025-10-20T14:30:46.247070,-10.931297709923664,1.2442748091603053,-4.480916030534351,0.0383072265625,-0.09816226806640624,9.279925634765624,29.424117647058825
2025-10-20T14:30:46.263852,-9.748091603053435,0.8931297709923665,-4.267175572519084,0.01915361328125,-0.08140285644531249,9.382876306152344,29.424117647058825
2025-10-20T14:30:46.280646,-8.86259541984733,0.8091603053435115,-4.145038167938932,0.16519991455078123,0.055066638183593745,9.210493786621093,29.424117647058825
2025-10-20T14:30:46.297438,-8.221374045801527,0.7938931297709924,-3.877862595419847,0.12449848632812499,-0.00718260498046875,9.30147344970703,29.330000000000002
2025-10-20T14:30:46.314217,-7.465648854961832,0.9236641221374046,-3.6793893129770994,0.15562310791015624,0.02633621826171875,9.229647399902344,29.424117647058825
2025-10-20T14:30:46.331001,-6.251908396946565,1.0763358778625953,-3.5343511450381677,0.296881005859375,-0.02633621826171875,9.2320416015625,29.330000000000002
2025-10-20T14:30:46.347916,-5.091603053435114,1.1603053435114503,-3.2977099236641223,0.3591302490234375,-0.12449848632812499,9.368511096191405,29.424117647058825
2025-10-20T14:30:46.364815,-4.0534351145038165,1.1603053435114503,-2.8625954198473282,0.3327940307617187,-0.11013327636718749,9.296685046386719,29.471176470588237
2025-10-20T14:30:46.381606,-3.633587786259542,1.2213740458015268,-2.549618320610687,0.33039982910156246,-0.2059013427734375,9.291896643066405,29.377058823529413
2025-10-20T14:30:46.398400,-3.0076335877862594,1.1526717557251909,-2.2977099236641223,0.35673604736328124,-0.22266075439453123,9.320627062988281,29.377058823529413
2025-10-20T14:30:46.415185,-2.1068702290076335,1.1221374045801527,-1.9923664122137406,0.3280056274414062,-0.20350714111328125,9.291896643066405,29.377058823529413
2025-10-20T14:30:46.431977,-0.816793893129771,0.9236641221374046,-1.816793893129771,0.3064578125,-0.24660277099609373,9.318232861328125,29.51823529411765
2025-10-20T14:30:46.448764,0.549618320610687,0.5725190839694656,-1.8396946564885497,0.23702596435546874,-0.17477672119140625,9.332598071289063,29.330000000000002
2025-10-20T14:30:46.465554,1.450381679389313,0.10687022900763359,-1.900763358778626,0.43574470214843747,-0.16998831787109375,9.251195214843749,29.424117647058825
2025-10-20T14:30:46.482353,1.786259541984733,-0.061068702290076333,-2.0610687022900764,0.296881005859375,-0.0909796630859375,9.299079248046874,29.424117647058825
2025-10-20T14:30:46.499146,2.0763358778625953,-0.31297709923664124,-2.1755725190839694,0.229843359375,-0.055066638183593745,9.303867651367186,29.330000000000002
2025-10-20T14:30:46.515928,2.6564885496183206,-0.21374045801526717,-2.2595419847328246,0.2705447875976562,-0.12449848632812499,9.143456140136719,29.377058823529413
2025-10-20T14:30:46.532703,2.9770992366412212,-0.20610687022900764,-2.435114503816794,0.06943184814453125,0.1197100830078125,9.052476477050782,29.28294117647059
2025-10-20T14:30:46.549479,2.7709923664122136,0.08396946564885496,-2.49618320610687,0.10295067138671875,0.08858546142578125,9.490615380859374,29.471176470588237
2025-10-20T14:30:46.566252,2.3893129770992365,0.0916030534351145,-2.595419847328244,0.06943184814453125,0.033518823242187495,9.30147344970703,29.377058823529413
2025-10-20T14:30:46.583026,1.916030534351145,0.20610687022900764,-2.7022900763358777,0.05746083984375,0.0718260498046875,9.397241516113281,29.377058823529413
2025-10-20T14:30:46.599800,1.7099236641221374,0.45038167938931295,-2.8396946564885495,0.05027823486328125,0.00718260498046875,9.227253198242186,29.377058823529413
2025-10-20T14:30:46.616573,1.0610687022900764,0.32061068702290074,-2.6717557251908395,0.086191259765625,0.0047884033203125,9.318232861328125,29.377058823529413
2025-10-20T14:30:46.633346,0.33587786259541985,0.15267175572519084,-2.6412213740458017,0.1197100830078125,0.0526724365234375,9.303867651367186,29.377058823529413
2025-10-20T14:30:46.650293,-0.6259541984732825,0.2748091603053435,-2.3435114503816794,0.0,-0.011971008300781249,9.3086560546875,29.330000000000002
2025-10-20T14:30:46.667118,-1.9236641221374047,0.1297709923664122,-2.0381679389312977,-0.105344873046875,-0.12210428466796874,9.318232861328125,29.471176470588237
2025-10-20T14:30:46.683922,-3.236641221374046,1.9312977099236641,-1.4427480916030535,-0.1292868896484375,-0.062249243164062495,9.41639512939453,29.377058823529413
2025-10-20T14:30:46.700723,-4.648854961832061,-1.9465648854961832,-0.8015267175572519,-0.21787235107421873,-0.023942016601562498,9.349357482910156,29.330000000000002
2025-10-20T14:30:46.717510,-6.206106870229007,1.9465648854961832,0.007633587786259542,-0.1292868896484375,-0.02633621826171875,9.504980590820312,29.330000000000002
2025-10-20T14:30:46.734284,-7.519083969465649,1.8931297709923665,0.6259541984732825,-0.07422025146484375,-0.1005564697265625,9.351751684570312,29.424117647058825
2025-10-20T14:30:46.751059,-8.793893129770993,0.061068702290076333,1.4198473282442747,0.02633621826171875,-0.143652099609375,9.406818322753905,29.424117647058825
2025-10-20T14:30:46.767832,-9.938931297709924,0.16793893129770993,2.030534351145038,-0.0143652099609375,-0.076614453125,9.421183532714844,29.424117647058825
2025-10-20T14:30:46.784615,-10.908396946564885,0.22137404580152673,2.6030534351145036,0.040701428222656245,-0.143652099609375,9.327809667968749,29.330000000000002
2025-10-20T14:30:46.801398,-11.404580152671755,-0.015267175572519083,3.0610687022900764,0.016759411621093748,-0.07422025146484375,9.349357482910156,29.424117647058825
2025-10-20T14:30:46.818171,-11.374045801526718,0.03816793893129771,3.198473282442748,0.06464344482421874,-0.11252747802734374,9.342174877929686,29.424117647058825
2025-10-20T14:30:46.834943,-10.83206106870229,-0.1450381679389313,3.4656488549618323,0.086191259765625,-0.0909796630859375,9.380482104492186,29.424117647058825
2025-10-20T14:30:46.851721,-10.51908396946565,-0.3282442748091603,3.519083969465649,0.1197100830078125,-0.1005564697265625,9.382876306152344,29.28294117647059
2025-10-20T14:30:46.868508,-10.32824427480916,-0.5954198473282443,3.83206106870229,0.14604630126953125,-0.076614453125,9.490615380859374,29.377058823529413
2025-10-20T14:30:46.885302,-10.007633587786259,-0.5267175572519084,3.9618320610687023,-0.009576806640625,-0.181959326171875,9.382876306152344,29.377058823529413
2025-10-20T14:30:46.902089,-9.091603053435115,-0.48854961832061067,4.320610687022901,-0.031124621582031248,-0.201112939453125,9.241618408203124,29.330000000000002
2025-10-20T14:30:46.918874,-7.396946564885496,-0.4122137404580153,4.396946564885496,-0.12210428466796874,-0.28490999755859375,9.315838659667968,29.424117647058825
2025-10-20T14:30:46.935657,-7.801526717557252,-0.5725190839694656,4.633587786259542,0.02154781494140625,-0.354341845703125,9.356540087890625,29.330000000000002
2025-10-20T14:30:46.952438,-4.343511450381679,-0.2595419847328244,4.893129770992366,0.0,-0.40462008056640625,9.394847314453125,29.330000000000002
2025-10-20T14:30:46.969212,-3.1603053435114505,-0.20610687022900764,5.206106870229007,-0.086191259765625,-0.3854664672851562,9.421183532714844,29.330000000000002
2025-10-20T14:30:46.985985,-1.8244274809160306,-0.022900763358778626,5.557251908396947,-0.10295067138671875,-0.3902548706054687,9.366116894531249,29.424117647058825
2025-10-20T14:30:47.002758,-0.4580152671755725,-0.3511450381679389,5.625954198473282,0.16759411621093748,-0.2346317626953125,9.397241516113281,29.330000000000002
2025-10-20T14:30:47.019530,0.7175572519083969,-0.4580152671755725,5.534351145038168,0.23702596435546874,-0.0526724365234375,9.481038574218749,29.330000000000002
2025-10-20T14:30:47.036302,1.6488549618320612,-0.6335877862595419,5.351145038167939,0.373495458984375,-0.1197100830078125,9.392453112792968,29.330000000000002
2025-10-20T14:30:47.053074,2.2900763358778624,-0.5572519083969466,5.099236641221374,0.430956298828125,0.15083470458984374,9.342174877929686,29.377058823529413
2025-10-20T14:30:47.069856,2.8091603053435112,-0.1297709923664122,4.572519083969466,0.5123591552734374,0.2154781494140625,9.3852705078125,29.28294117647059
2025-10-20T14:30:47.086662,2.9083969465648853,-0.1297709923664122,4.1679389312977095,0.5482721801757812,0.41898529052734373,9.459490759277344,29.377058823529413
2025-10-20T14:30:47.103451,2.5572519083969465,0.2595419847328244,3.6717557251908395,0.584185205078125,0.5363011718749999,9.387664709472656,29.377058823529413
2025-10-20T14:30:47.120230,2.045801526717557,0.48091603053435117,2.816793893129771,0.7350199096679687,0.51714755859375,9.586383447265625,29.377058823529413
2025-10-20T14:30:47.137013,1.3206106870229009,0.648854961832061,2.2061068702290076,0.488417138671875,0.4908113403320312,9.399635717773437,29.424117647058825
2025-10-20T14:30:47.153783,0.6183206106870229,0.816793893129771,1.6412213740458015,0.4381389038085937,0.3711012573242187,9.425971936035156,29.424117647058825
2025-10-20T14:30:47.170557,0.3511450381679389,0.648854961832061,1.16793893129771,0.35194764404296874,0.23223756103515625,9.277531433105468,29.424117647058825
2025-10-20T14:30:47.187376,0.19083969465648856,1.015267175572519,0.9541984732824428,0.2059013427734375,0.076614453125,9.198522778320312,29.330000000000002
2025-10-20T14:30:47.204233,-0.04580152671755725,0.916030534351145,0.7633587786259542,0.16759411621093748,0.016759411621093748,9.291896643066405,29.377058823529413
2025-10-20T14:30:47.221021,-0.183206106870229,0.7099236641221374,0.816793893129771,0.1292868896484375,-0.09816226806640624,9.251195214843749,29.377058823529413
2025-10-20T14:30:47.237800,-0.015267175572519083,0.7251908396946565,0.7404580152671756,0.05985504150390625,-0.0143652099609375,9.124302526855468,29.28294117647059
2025-10-20T14:30:47.254577,0.4122137404580153,0.5801526717557252,0.7862595419847328,-0.016759411621093748,-0.28490999755859375,9.191340173339842,29.377058823529413
2025-10-20T14:30:47.271375,0.9923664122137404,0.5419847328244275,0.6946564885496184,-0.055066638183593745,-0.181959326171875,9.318232861328125,29.330000000000002
2025-10-20T14:30:47.288180,1.7404580152671756,0.5267175572519084,0.6183206106870229,-0.1771709228515625,-0.2705447875976562,9.050082275390624,29.424117647058825
2025-10-20T14:30:47.304974,2.648854961832061,0.22900763358778625,0.5190839694656488,-0.1771709228515625,-0.25139117431640623,9.076418493652342,29.424117647058825
2025-10-20T14:30:47.321751,3.3969465648854964,0.1984732824427481,0.48091603053435117,-0.30406361083984373,-0.239420166015625,9.143456140136719,29.424117647058825
2025-10-20T14:30:47.338525,4.259541984732825,-0.1984732824427481,0.648854961832061,-0.21308394775390624,-0.076614453125,9.119514123535156,29.424117647058825
2025-10-20T14:30:47.355300,4.572519083969466,-0.3435114503816794,0.4351145038167939,-0.086191259765625,-0.02154781494140625,9.337386474609374,29.330000000000002
2025-10-20T14:30:47.372072,4.709923664122138,-0.5419847328244275,0.4580152671755725,0.062249243164062495,0.12210428466796874,9.253589416503905,29.330000000000002
2025-10-20T14:30:47.388843,4.297709923664122,-0.6564885496183206,0.5038167938931297,0.19153613281249998,0.296881005859375,9.265560424804686,29.330000000000002
2025-10-20T14:30:47.405619,5.847328244274809,-0.44274809160305345,0.40458015267175573,0.2154781494140625,0.3280056274414062,9.227253198242186,29.424117647058825
2025-10-20T14:30:47.422390,3.33587786259542,-0.3816793893129771,0.37404580152671757,0.28012159423828126,0.3184288208007812,9.485826977539062,29.330000000000002
2025-10-20T14:30:47.439161,2.3893129770992365,-0.030534351145038167,0.40458015267175573,0.39264907226562495,0.354341845703125,9.239224206542968,29.330000000000002
2025-10-20T14:30:47.455935,1.0,-0.09923664122137404,0.5419847328244275,0.38307226562499996,0.33758243408203126,9.323021264648437,29.424117647058825
2025-10-20T14:30:47.472715,-0.31297709923664124,0.030534351145038167,0.5419847328244275,0.27293898925781246,0.3687070556640625,9.2320416015625,29.424117647058825
2025-10-20T14:30:47.489511,-1.1221374045801527,0.2900763358778626,0.5648854961832062,0.28490999755859375,0.19632453613281248,9.294290844726563,29.330000000000002
2025-10-20T14:30:47.506294,-1.6870229007633588,0.16793893129770993,0.5954198473282443,0.2059013427734375,0.20829554443359374,9.418789331054686,29.330000000000002
2025-10-20T14:30:47.523086,-2.2290076335877864,-0.10687022900763359,0.6183206106870229,0.17956512451171874,0.09816226806640624,9.361328491210937,29.377058823529413
2025-10-20T14:30:47.539864,-2.3969465648854964,-0.1297709923664122,0.6412213740458015,0.1867477294921875,0.05746083984375,9.399635717773437,29.377058823529413
2025-10-20T14:30:47.556638,-2.549618320610687,0.0,0.7862595419847328,0.09576806640624999,0.0,9.239224206542968,29.377058823529413
2025-10-20T14:30:47.573408,-2.351145038167939,0.10687022900763359,0.6183206106870229,0.03591302490234375,0.009576806640625,9.315838659667968,29.377058823529413
2025-10-20T14:30:47.590179,-3.9083969465648853,-0.03816793893129771,0.7557251908396947,-0.033518823242187495,-0.1484405029296875,9.210493786621093,29.377058823529413
2025-10-20T14:30:47.606953,-0.9007633587786259,1.916030534351145,0.5877862595419847,0.0,-0.19871873779296872,9.375693701171874,29.377058823529413
2025-10-20T14:30:47.623723,0.061068702290076333,-0.21374045801526717,0.6259541984732825,-0.047884033203124995,-0.1867477294921875,9.289502441406249,29.377058823529413
2025-10-20T14:30:47.640495,1.0076335877862594,-0.06870229007633588,0.732824427480916,-0.02154781494140625,-0.26815058593749996,9.229647399902344,29.377058823529413
2025-10-20T14:30:47.657265,1.8702290076335877,-0.03816793893129771,0.7633587786259542,0.05985504150390625,-0.201112939453125,9.260772021484375,29.28294117647059
2025-10-20T14:30:47.674047,3.0229007633587788,1.9389312977099236,0.6870229007633588,0.08858546142578125,-0.11013327636718749,9.30147344970703,29.377058823529413
2025-10-20T14:30:47.690851,3.6412213740458017,0.1450381679389313,0.8015267175572519,0.040701428222656245,-0.086191259765625,9.411606726074218,29.377058823529413
2025-10-20T14:30:47.707631,4.1679389312977095,-0.13740458015267176,1.1145038167938932,0.02633621826171875,-0.04548983154296875,9.320627062988281,29.28294117647059
2025-10-20T14:30:47.724403,4.442748091603053,0.07633587786259542,1.4580152671755726,-0.00718260498046875,0.0718260498046875,9.390058911132812,29.377058823529413
2025-10-20T14:30:47.741174,4.465648854961832,0.08396946564885496,1.83206106870229,-0.076614453125,0.06943184814453125,9.425971936035156,29.377058823529413
2025-10-20T14:30:47.757946,4.2748091603053435,-0.061068702290076333,1.9694656488549618,-0.1292868896484375,0.22266075439453123,9.4618849609375,29.28294117647059
2025-10-20T14:30:47.774717,4.091603053435114,0.0916030534351145,2.3435114503816794,-0.1197100830078125,0.24660277099609373,9.3852705078125,29.330000000000002
2025-10-20T14:30:47.791498,3.946564885496183,1.8778625954198473,2.6259541984732824,-0.11252747802734374,0.27293898925781246,9.406818322753905,29.330000000000002
2025-10-20T14:30:47.808279,3.5572519083969465,-0.07633587786259542,2.7022900763358777,-0.05985504150390625,0.3016694091796875,9.41639512939453,29.330000000000002
2025-10-20T14:30:47.825055,3.053435114503817,-0.04580152671755725,2.885496183206107,-0.023942016601562498,0.28730419921875,9.509768994140625,29.330000000000002
2025-10-20T14:30:47.841826,2.4732824427480917,-0.12213740458015267,2.8244274809160306,0.0430956298828125,0.3758896606445312,9.469067565917967,29.424117647058825
2025-10-20T14:30:47.858603,1.8396946564885497,-1.916030534351145,2.8396946564885495,0.07900865478515624,0.34237083740234375,9.5384994140625,29.424117647058825
2025-10-20T14:30:47.875389,1.2900763358778626,-0.061068702290076333,2.6564885496183206,0.181959326171875,0.38786066894531246,9.3852705078125,29.330000000000002
2025-10-20T14:30:47.892221,0.9236641221374046,0.366412213740458,2.5801526717557253,0.14125789794921875,0.4572925170898437,9.414000927734374,29.330000000000002
2025-10-20T14:30:47.909010,0.6717557251908397,0.4961832061068702,2.687022900763359,0.09816226806640624,0.488417138671875,9.3852705078125,29.471176470588237
2025-10-20T14:30:47.925788,-0.35877862595419846,0.6106870229007634,2.572519083969466,0.023942016601562498,0.6296750366210937,9.543287817382812,29.377058823529413
2025-10-20T14:30:47.942575,-1.3053435114503817,0.6717557251908397,2.633587786259542,0.2920926025390625,0.49799394531249996,9.519345800781249,29.377058823529413
2025-10-20T14:30:47.959359,-2.2442748091603053,0.8320610687022901,2.7022900763358777,0.08379705810546874,0.5410895751953124,9.382876306152344,29.377058823529413
2025-10-20T14:30:47.976134,-2.50381679389313,0.7862595419847328,2.8396946564885495,0.086191259765625,0.48123453369140623,9.294290844726563,29.471176470588237
2025-10-20T14:30:47.992908,-2.3282442748091605,0.732824427480916,2.9236641221374047,0.06943184814453125,0.45489831542968745,9.294290844726563,29.424117647058825
2025-10-20T14:30:48.009683,-2.33587786259542,0.6335877862595419,2.877862595419847,0.19871873779296872,0.38307226562499996,9.418789331054686,29.424117647058825
2025-10-20T14:30:48.026585,-2.877862595419847,0.5114503816793893,3.0381679389312977,0.277727392578125,0.37828386230468747,9.469067565917967,29.471176470588237
2025-10-20T14:30:48.043436,-3.145038167938931,0.3282442748091603,3.2061068702290076,0.16519991455078123,0.3232172241210937,9.392453112792968,29.377058823529413
2025-10-20T14:30:48.060228,-3.0839694656488548,0.6030534351145038,3.404580152671756,0.1580173095703125,0.16041151123046873,9.248801013183593,29.424117647058825
2025-10-20T14:30:48.077010,-2.3206106870229006,0.9694656488549618,3.7709923664122136,0.031124621582031248,0.26336218261718747,9.200916979980468,29.330000000000002
2025-10-20T14:30:48.093808,-1.297709923664122,1.381679389312977,4.106870229007634,0.17477672119140625,0.20350714111328125,9.332598071289063,29.330000000000002
2025-10-20T14:30:48.110611,-0.44274809160305345,1.6488549618320612,4.748091603053435,0.1580173095703125,0.1292868896484375,9.289502441406249,29.424117647058825
2025-10-20T14:30:48.127405,0.37404580152671757,1.6870229007633588,5.564885496183206,0.033518823242187495,0.02154781494140625,9.066841687011719,29.377058823529413
2025-10-20T14:30:48.144180,1.5954198473282444,2.114503816793893,6.572519083969466,0.0047884033203125,-0.062249243164062495,9.102754711914063,29.471176470588237
2025-10-20T14:30:48.160957,2.633587786259542,1.900763358778626,7.8396946564885495,-0.031124621582031248,-0.12689268798828124,9.074024291992187,29.377058823529413
2025-10-20T14:30:48.177727,3.6259541984732824,1.5877862595419847,8.977099236641221,0.02633621826171875,0.05746083984375,9.344569079589844,29.28294117647059
2025-10-20T14:30:48.194501,4.213740458015267,0.9083969465648855,9.877862595419847,-0.028730419921875,0.1292868896484375,9.227253198242186,29.377058823529413
2025-10-20T14:30:48.211273,5.603053435114504,1.9389312977099236,10.488549618320612,0.16998831787109375,-0.016759411621093748,8.90643017578125,29.377058823529413
2025-10-20T14:30:48.228047,7.763358778625954,-0.25190839694656486,10.786259541984732,0.4285620971679687,-0.19871873779296872,8.90643017578125,29.28294117647059
2025-10-20T14:30:48.244819,10.870229007633588,-0.4351145038167939,10.664122137404581,0.6344634399414062,-0.2059013427734375,8.913612780761719,29.377058823529413
2025-10-20T14:30:48.261601,15.01526717557252,-0.6183206106870229,11.687022900763358,0.7589619262695312,-0.04548983154296875,8.975862023925782,29.377058823529413
2025-10-20T14:30:48.278389,19.412213740458014,-0.6870229007633588,8.83206106870229,0.7900865478515624,0.15083470458984374,8.772354882812499,29.28294117647059
2025-10-20T14:30:48.295178,23.16793893129771,-0.5419847328244275,7.488549618320611,0.2346317626953125,0.7038952880859375,8.82981572265625,29.424117647058825
2025-10-20T14:30:48.311958,26.18320610687023,-0.16030534351145037,2.435114503816794,-0.2753331909179687,1.3072341064453123,9.028534460449219,29.330000000000002
2025-10-20T14:30:48.328731,26.938931297709924,-1.9236641221374047,0.7480916030534351,0.08140285644531249,0.6177040283203125,9.200916979980468,29.330000000000002
2025-10-20T14:30:48.345505,26.47328244274809,0.015267175572519083,0.5877862595419847,-3.1364041748046874,-3.1483751831054687,9.871293444824218,29.330000000000002
2025-10-20T14:30:48.362282,28.328244274809162,-3.0763358778625953,1.83206106870229,0.00718260498046875,0.3495534423828125,8.89924757080078,29.330000000000002
2025-10-20T14:30:48.379065,30.938931297709924,-0.25190839694656486,1.3893129770992367,0.40222587890625,0.430956298828125,8.796296899414061,29.330000000000002
2025-10-20T14:30:48.395837,36.88549618320611,-1.1755725190839694,1.4885496183206106,0.6200982299804687,0.9600748657226562,9.105148913574219,29.424117647058825
2025-10-20T14:30:48.412610,32.70992366412214,-0.42748091603053434,2.2900763358778624,0.44532150878906246,1.438915197753906,9.330203869628905,29.424117647058825
2025-10-20T14:30:48.429382,26.427480916030536,-2.4732824427480917,3.114503816793893,0.9888052856445312,1.944091748046875,10.364498986816406,29.424117647058825
2025-10-20T14:30:48.446153,17.931297709923665,-0.4351145038167939,2.4732824427480917,0.6631938598632812,1.8339584716796873,9.069235888671875,29.424117647058825
2025-10-20T14:30:48.462937,13.297709923664122,-0.9923664122137404,1.3206106870229009,0.17238251953125,1.429338391113281,9.86411083984375,29.424117647058825
2025-10-20T14:30:48.479729,9.84732824427481,-0.4122137404580153,1.3206106870229009,-0.0909796630859375,1.5011644409179687,9.37808790283203,29.377058823529413
2025-10-20T14:30:48.496519,7.458015267175573,1.1984732824427482,0.3511450381679389,0.5339069702148437,2.0733786376953125,9.524134204101562,29.377058823529413
2025-10-20T14:30:48.513297,2.2290076335877864,0.9923664122137404,0.8320610687022901,0.12689268798828124,1.5011644409179687,9.890447058105469,29.377058823529413
2025-10-20T14:30:48.530075,-5.152671755725191,2.3206106870229006,1.1068702290076335,0.047884033203124995,1.9656395629882812,9.567229833984374,29.471176470588237
2025-10-20T14:30:48.546851,-7.8320610687022905,2.450381679389313,1.3129770992366412,0.0430956298828125,1.8722656982421875,9.41639512939453,29.377058823529413
2025-10-20T14:30:48.563623,-12.106870229007633,3.7404580152671754,0.8854961832061069,-0.5147533569335937,1.5586252807617187,8.975862023925782,29.471176470588237
2025-10-20T14:30:48.580395,-12.106870229007633,4.099236641221374,0.3435114503816794,-1.4437036010742186,0.9959878906249999,9.351751684570312,29.377058823529413
2025-10-20T14:30:48.597166,-11.885496183206106,2.1297709923664123,-0.2366412213740458,-0.8667010009765624,1.458068811035156,9.093177905273437,29.377058823529413
2025-10-20T14:30:48.613938,-11.854961832061068,1.618320610687023,-1.3282442748091603,-0.74699091796875,1.5634136840820312,8.990227233886719,29.377058823529413
2025-10-20T14:30:48.630709,-12.01526717557252,-0.3435114503816794,-1.4122137404580153,-0.055066638183593745,1.4030021728515625,9.100360510253905,29.377058823529413
2025-10-20T14:30:48.647480,-11.549618320610687,-0.0916030534351145,-1.3435114503816794,-0.22026655273437498,1.4245499877929686,8.872911352539061,29.471176470588237
2025-10-20T14:30:48.664260,-10.893129770992367,-1.2061068702290076,-0.9541984732824428,-0.5410895751953124,1.1755530151367186,9.047688073730468,29.330000000000002
2025-10-20T14:30:48.681059,-10.610687022900763,-1.9694656488549618,-0.5801526717557252,-0.8906430175781249,0.7757213378906249,9.519345800781249,29.424117647058825
2025-10-20T14:30:48.697850,-9.396946564885496,-2.969465648854962,0.007633587786259542,-0.4860229370117187,1.0510545288085937,8.99501563720703,29.330000000000002
2025-10-20T14:30:48.714631,-5.633587786259542,-3.732824427480916,-0.7633587786259542,0.4477157104492187,1.7693150268554687,9.160215551757812,29.424117647058825
2025-10-20T14:30:48.731403,-2.4427480916030535,-2.549618320610687,-1.7557251908396947,-0.3280056274414062,1.1540052001953125,9.069235888671875,29.424117647058825
2025-10-20T14:30:48.748175,-0.8854961832061069,-2.5419847328244276,-2.4122137404580153,-0.6703764648437499,1.3335703247070312,9.320627062988281,29.424117647058825
2025-10-20T14:30:48.764948,-0.8473282442748091,-2.6030534351145036,-2.2519083969465647,-0.0143652099609375,1.4963760375976562,9.528922607421874,29.424117647058825
2025-10-20T14:30:48.781727,-1.3053435114503817,-2.3893129770992365,-2.4732824427480917,0.5147533569335937,1.6927005737304686,9.744400756835937,29.330000000000002
2025-10-20T14:30:48.798511,-1.0076335877862594,-1.465648854961832,-1.9923664122137406,-0.011971008300781249,1.659181750488281,9.167398156738281,29.424117647058825
2025-10-20T14:30:48.815291,1.3587786259541985,-1.0763358778625953,-1.8244274809160306,-0.20829554443359374,1.608903515625,9.313444458007812,29.330000000000002
2025-10-20T14:30:48.832064,3.2213740458015265,-0.3282442748091603,-2.2442748091603053,-0.354341845703125,1.7118541870117185,9.397241516113281,29.330000000000002
2025-10-20T14:30:48.848836,4.129770992366412,-0.11450381679389313,-3.549618320610687,-0.28969840087890625,1.697488977050781,9.701305126953125,29.330000000000002
2025-10-20T14:30:48.865739,3.2442748091603053,-0.13740458015267176,-4.824427480916031,-0.36631285400390623,1.5275006591796874,9.533711010742186,29.330000000000002
2025-10-20T14:30:48.882610,3.0916030534351147,-0.44274809160305345,-5.488549618320611,-0.19153613281249998,1.35990654296875,9.409212524414063,29.330000000000002
2025-10-20T14:30:48.899410,5.145038167938932,0.4198473282442748,-6.106870229007634,-0.15322890625,1.2641384765625,9.157821350097656,29.377058823529413
2025-10-20T14:30:48.916196,8.091603053435115,0.9847328244274809,-7.068702290076335,-0.1580173095703125,1.1731588134765625,9.390058911132812,29.377058823529413
2025-10-20T14:30:48.932976,9.16030534351145,1.5954198473282444,-7.9541984732824424,-0.0718260498046875,1.3575123413085937,9.593566052246093,29.377058823529413
2025-10-20T14:30:48.949768,8.717557251908397,1.6106870229007633,-7.99236641221374,0.12449848632812499,1.16837041015625,9.660603698730467,29.377058823529413
2025-10-20T14:30:48.966562,7.450381679389313,2.3206106870229006,-7.732824427480916,0.1005564697265625,1.0175357055664063,9.418789331054686,29.377058823529413
2025-10-20T14:30:48.983339,7.022900763358779,2.885496183206107,-7.549618320610687,0.16759411621093748,0.9337386474609375,9.291896643066405,29.377058823529413
2025-10-20T14:30:49.000110,8.01526717557252,3.83206106870229,-7.3816793893129775,0.1867477294921875,0.9361328491210937,9.133879333496093,29.377058823529413
2025-10-20T14:30:49.016886,9.48091603053435,3.8091603053435112,-7.229007633587786,0.4525041137695312,0.9504980590820312,9.411606726074218,29.471176470588237
2025-10-20T14:30:49.033658,9.67175572519084,4.221374045801527,-7.152671755725191,0.26336218261718747,1.0893617553710937,9.452308154296874,29.377058823529413
2025-10-20T14:30:49.050429,9.091603053435115,4.206106870229007,-6.877862595419847,0.4261678955078125,1.2952630981445312,9.337386474609374,29.377058823529413
2025-10-20T14:30:49.067250,8.129770992366412,4.732824427480916,-6.511450381679389,0.3447650390625,1.369483349609375,9.102754711914063,29.330000000000002
2025-10-20T14:30:49.084050,8.129770992366412,5.129770992366412,-6.312977099236641,0.34715924072265625,1.5107412475585937,9.1554271484375,29.424117647058825
2025-10-20T14:30:49.100842,7.687022900763359,4.977099236641221,-3.9770992366412212,0.1771709228515625,1.5083470458984374,9.138667736816405,29.424117647058825
2025-10-20T14:30:49.117624,7.015267175572519,4.603053435114504,-5.404580152671755,0.143652099609375,1.4724340209960938,9.119514123535156,29.424117647058825
2025-10-20T14:30:49.134398,5.656488549618321,3.854961832061069,-4.801526717557252,-0.016759411621093748,1.455674609375,9.145850341796875,29.330000000000002
2025-10-20T14:30:49.151170,4.0,3.7786259541984735,-3.450381679389313,-0.105344873046875,1.5538368774414062,8.966285217285156,29.330000000000002
2025-10-20T14:30:49.167945,2.717557251908397,3.564885496183206,-2.4656488549618323,-0.14604630126953125,1.5873557006835937,9.030928662109375,29.424117647058825
2025-10-20T14:30:49.184719,1.717557251908397,3.114503816793893,-1.450381679389313,-0.13168109130859373,1.5346832641601562,9.02135185546875,29.424117647058825
2025-10-20T14:30:49.201502,1.7938931297709924,2.5267175572519083,-1.0305343511450382,-0.02633621826171875,1.599326708984375,8.9255837890625,29.424117647058825
2025-10-20T14:30:49.218284,1.8091603053435115,1.8778625954198473,-0.7938931297709924,0.07422025146484375,1.7238251953125,8.939948999023438,29.377058823529413
2025-10-20T14:30:49.235055,1.2366412213740459,1.5114503816793894,-0.2900763358778626,0.32082302246093747,1.7022773803710936,8.913612780761719,29.377058823529413
2025-10-20T14:30:49.251827,0.4122137404580153,1.2061068702290076,-0.16030534351145037,0.32082302246093747,1.8363526733398436,8.973467822265624,29.377058823529413
2025-10-20T14:30:49.268611,-0.3511450381679389,1.1145038167938932,-0.12213740458015267,0.3232172241210937,1.6831237670898436,8.951920007324219,29.377058823529413
2025-10-20T14:30:49.285429,-0.13740458015267176,0.9236641221374046,-0.46564885496183206,-0.12449848632812499,1.5825672973632812,9.026140258789061,29.471176470588237
2025-10-20T14:30:49.302232,0.7251908396946565,0.32061068702290074,-0.45038167938931295,-0.46686932373046874,1.446097802734375,8.894459167480468,29.377058823529413
2025-10-20T14:30:49.319028,1.2213740458015268,-0.5114503816793893,-0.3816793893129771,-0.5722141967773438,1.2569558715820313,9.141061938476563,29.330000000000002
2025-10-20T14:30:49.335814,1.2748091603053435,-0.9770992366412213,-0.022900763358778626,-0.7230489013671875,1.1947066284179686,9.1554271484375,29.424117647058825
2025-10-20T14:30:49.352591,1.2213740458015268,-1.633587786259542,0.6793893129770993,-0.5793968017578125,1.024718310546875,9.057264880371093,29.330000000000002
2025-10-20T14:30:49.369370,1.633587786259542,-1.4198473282442747,1.2061068702290076,-0.5003881469726562,1.2425906616210938,9.062053283691405,29.424117647058825
2025-10-20T14:30:49.386148,2.427480916030534,-1.465648854961832,1.8854961832061068,-0.24899697265624998,1.3646949462890625,9.323021264648437,29.424117647058825
2025-10-20T14:30:49.402925,3.045801526717557,-1.3511450381679388,3.8702290076335877,0.033518823242187495,1.6160861206054686,9.145850341796875,29.330000000000002
2025-10-20T14:30:49.419709,3.3587786259541983,-1.3435114503816794,1.633587786259542,0.5674257934570313,1.8195932617187498,9.45470235595703,29.424117647058825
2025-10-20T14:30:49.436482,2.519083969465649,-1.5114503816793894,0.9694656488549618,0.9600748657226562,1.9943699829101562,9.234435803222656,29.330000000000002
2025-10-20T14:30:49.453260,0.03816793893129771,-1.3282442748091603,-0.24427480916030533,1.0678139404296874,2.152387292480469,9.200916979980468,29.424117647058825
2025-10-20T14:30:49.470044,1.4961832061068703,-0.9923664122137404,-1.549618320610687,1.0199299072265624,2.195482922363281,9.3852705078125,29.330000000000002
2025-10-20T14:30:49.486839,0.6946564885496184,0.007633587786259542,-2.114503816793893,0.19871873779296872,2.0278888061523435,9.2320416015625,29.330000000000002
2025-10-20T14:30:49.503629,0.19083969465648856,-0.13740458015267176,-1.4961832061068703,0.0718260498046875,1.695094775390625,9.318232861328125,29.377058823529413
2025-10-20T14:30:49.520412,-0.7099236641221374,-0.2900763358778626,-0.6946564885496184,0.1149216796875,1.915361328125,9.564835632324218,29.377058823529413
2025-10-20T14:30:49.537192,-1.8015267175572518,1.9083969465648856,0.45038167938931295,-0.32082302246093747,1.7405846069335937,9.557653027343749,29.377058823529413
2025-10-20T14:30:49.553966,-3.564885496183206,0.648854961832061,0.015267175572519083,-0.3016694091796875,1.7812860351562498,9.37808790283203,29.377058823529413
2025-10-20T14:30:49.570741,-4.969465648854962,0.9847328244274809,3.435114503816794,-0.13646949462890623,1.7334020019531249,9.469067565917967,29.377058823529413
2025-10-20T14:30:49.587515,-5.396946564885496,2.114503816793893,4.687022900763359,-0.2705447875976562,1.5179238525390624,9.296685046386719,29.377058823529413
2025-10-20T14:30:49.604288,-5.778625954198473,2.3206106870229006,5.297709923664122,-0.19153613281249998,1.7788918334960937,9.469067565917967,29.377058823529413
2025-10-20T14:30:49.621060,-6.396946564885496,2.5343511450381677,5.076335877862595,-0.031124621582031248,2.0829554443359375,9.437942944335937,29.377058823529413
2025-10-20T14:30:49.637832,-7.282442748091603,2.3587786259541983,4.137404580152672,-0.08379705810546874,1.9488801513671874,9.344569079589844,29.471176470588237
2025-10-20T14:30:49.654605,-6.969465648854962,2.213740458015267,2.8625954198473282,-0.17238251953125,1.879448303222656,9.375693701171874,29.377058823529413
2025-10-20T14:30:49.671439,-6.236641221374046,2.2595419847328246,2.030534351145038,-0.3136404174804687,1.7453730102539062,9.241618408203124,29.28294117647059
2025-10-20T14:30:49.688261,-5.0458015267175576,2.4198473282442747,1.0687022900763359,-0.3950432739257812,1.707065783691406,9.30147344970703,29.424117647058825
2025-10-20T14:30:49.705252,-4.572519083969466,2.549618320610687,0.8702290076335878,-0.40462008056640625,1.7118541870117185,9.196128576660156,29.424117647058825
2025-10-20T14:30:49.722118,-5.137404580152672,2.564885496183206,0.8320610687022901,-0.469263525390625,1.599326708984375,9.239224206542968,29.330000000000002
2025-10-20T14:30:49.739050,-5.7251908396946565,2.381679389312977,1.2213740458015268,-0.4285620971679687,1.4508862060546874,9.18655177001953,29.330000000000002
2025-10-20T14:30:49.755934,-5.534351145038168,2.549618320610687,2.015267175572519,-0.36391865234375,1.1372457885742187,8.853757739257812,29.377058823529413
2025-10-20T14:30:49.772789,-4.877862595419847,2.236641221374046,2.816793893129771,-0.15562310791015624,1.3359645263671873,8.777143286132812,29.377058823529413
2025-10-20T14:30:49.789653,-4.221374045801527,2.0229007633587788,3.519083969465649,-0.14604630126953125,1.4772224243164063,8.736441857910156,29.330000000000002
2025-10-20T14:30:49.806545,-4.366412213740458,0.7938931297709924,3.7709923664122136,0.13407529296874998,1.668758557128906,8.662221606445312,29.377058823529413
2025-10-20T14:30:49.823405,-5.435114503816794,-0.3435114503816794,3.8091603053435112,0.01915361328125,1.6112977172851561,8.652644799804687,29.424117647058825
2025-10-20T14:30:49.840252,-5.778625954198473,-1.450381679389313,3.7557251908396947,-0.0383072265625,1.5825672973632812,8.671798413085938,29.330000000000002
2025-10-20T14:30:49.857097,-5.687022900763359,-2.2442748091603053,1.9541984732824427,0.11013327636718749,1.5322890624999999,8.683769421386717,29.377058823529413
2025-10-20T14:30:49.873959,-5.534351145038168,-2.5877862595419847,4.419847328244275,0.09337386474609374,1.484405029296875,8.8872765625,29.330000000000002
2025-10-20T14:30:49.890841,-6.114503816793893,-3.236641221374046,4.687022900763359,0.05027823486328125,1.5538368774414062,8.985438830566405,29.377058823529413
2025-10-20T14:30:49.907714,-7.633587786259542,-2.7709923664122136,5.290076335877862,-0.0383072265625,1.8076222534179687,9.076418493652342,29.377058823529413
2025-10-20T14:30:49.924564,-9.312977099236642,-2.5267175572519083,5.236641221374046,-0.0383072265625,1.8602946899414061,9.14824454345703,29.424117647058825
2025-10-20T14:30:49.941434,-10.916030534351146,-2.3969465648854964,5.137404580152672,-0.0718260498046875,1.8219874633789062,9.066841687011719,29.377058823529413
2025-10-20T14:30:49.958297,-11.633587786259541,-2.4198473282442747,4.900763358778626,-0.16998831787109375,1.6807295654296874,9.138667736816405,29.424117647058825
2025-10-20T14:30:49.975155,-11.770992366412214,-2.282442748091603,4.580152671755725,-0.22505495605468748,1.6998831787109374,9.126696728515624,29.28294117647059
2025-10-20T14:30:49.991997,-9.83206106870229,-2.564885496183206,3.8702290076335877,-0.29448680419921874,1.7549498168945312,9.133879333496093,29.377058823529413
2025-10-20T14:30:50.008845,-11.282442748091603,-3.1374045801526718,3.312977099236641,-0.316034619140625,1.8148048583984373,9.275137231445312,29.424117647058825
2025-10-20T14:30:50.025695,-10.786259541984732,-3.3282442748091605,2.6793893129770994,-0.3854664672851562,1.7357962036132812,9.229647399902344,29.424117647058825
2025-10-20T14:30:50.042540,-9.82442748091603,-3.633587786259542,2.3282442748091605,-0.3711012573242187,1.6519991455078125,9.291896643066405,29.377058823529413
2025-10-20T14:30:50.059406,-9.007633587786259,-3.480916030534351,2.3969465648854964,-0.4165910888671875,1.7525556152343749,9.282319836425781,29.51823529411765
2025-10-20T14:30:50.076287,-8.801526717557252,-3.5801526717557253,2.3740458015267176,-0.4955997436523437,1.6256629272460936,9.373299499511718,29.377058823529413
2025-10-20T14:30:50.093233,-9.0,-3.5267175572519083,2.4732824427480917,-0.5267243652343749,1.6807295654296874,9.258377819824219,29.471176470588237
2025-10-20T14:30:50.110100,-8.854961832061068,-3.4122137404580153,2.3893129770992365,-0.5099649536132812,1.7190367919921874,9.4618849609375,29.377058823529413
2025-10-20T14:30:50.126951,-8.236641221374045,-2.931297709923664,2.3206106870229006,-0.3711012573242187,1.8052280517578123,9.430760339355468,29.424117647058825
2025-10-20T14:30:50.143802,-7.435114503816794,-2.366412213740458,2.1603053435114505,-0.28012159423828126,1.7788918334960937,9.540893615722656,29.377058823529413
2025-10-20T14:30:50.160654,-7.786259541984733,-1.5648854961832062,2.122137404580153,-0.32082302246093747,1.917755529785156,9.60793126220703,29.424117647058825
2025-10-20T14:30:50.177495,-9.221374045801527,-0.9465648854961832,1.5572519083969465,-0.17956512451171874,1.9416975463867185,9.619902270507811,29.424117647058825
2025-10-20T14:30:50.194348,-11.030534351145038,-1.9541984732824427,0.9618320610687023,-0.14604630126953125,1.8938135131835936,9.639055883789062,29.377058823529413
2025-10-20T14:30:50.211190,-12.694656488549619,0.6183206106870229,0.4732824427480916,-0.0143652099609375,1.8243816650390623,9.6917283203125,29.424117647058825
2025-10-20T14:30:50.228046,-13.099236641221374,1.1374045801526718,-0.40458015267175573,0.0143652099609375,1.675941162109375,9.70369932861328,29.330000000000002
2025-10-20T14:30:50.246202,-13.465648854961833,1.9083969465648856,-1.015267175572519,0.01915361328125,1.6304513305664061,9.536105212402344,29.377058823529413
2025-10-20T14:30:50.263295,-13.740458015267176,2.213740458015267,-1.7938931297709924,0.040701428222656245,1.5107412475585937,9.488221179199218,29.330000000000002
2025-10-20T14:30:50.280212,-14.931297709923664,2.4885496183206106,-2.213740458015267,0.13407529296874998,1.39821376953125,9.72285294189453,29.424117647058825
2025-10-20T14:30:50.297082,-16.49618320610687,2.763358778625954,-2.49618320610687,0.20350714111328125,1.199495031738281,9.677363110351562,29.377058823529413
2025-10-20T14:30:50.313950,-17.022900763358777,2.7709923664122136,-2.6259541984732824,0.29927520751953124,1.0295067138671874,9.598354455566406,29.377058823529413
2025-10-20T14:30:50.330787,-16.69465648854962,3.3587786259541983,-2.8473282442748094,0.3184288208007812,0.8834604125976562,9.449913952636718,29.424117647058825
2025-10-20T14:30:50.347616,-15.557251908396946,3.381679389312977,-3.2442748091603053,0.2657563842773437,0.8188169677734375,9.200916979980468,29.424117647058825
2025-10-20T14:30:50.364448,-14.267175572519085,3.618320610687023,-3.3969465648854964,0.3711012573242187,0.6536170532226562,9.464279162597656,29.28294117647059
2025-10-20T14:30:50.381277,-13.98473282442748,3.8625954198473282,-3.3740458015267176,0.3854664672851562,0.6703764648437499,9.574412438964844,29.330000000000002
2025-10-20T14:30:50.398103,-14.129770992366412,4.190839694656488,-3.1297709923664123,0.46686932373046874,0.7206546997070312,9.528922607421874,29.424117647058825
2025-10-20T14:30:50.415441,-14.0,4.427480916030534,-3.114503816793893,0.25139117431640623,0.49320554199218747,9.315838659667968,29.377058823529413
2025-10-20T14:30:50.433672,-12.977099236641221,4.435114503816794,-3.2595419847328246,0.23702596435546874,0.6512228515624999,9.184157568359375,29.377058823529413
2025-10-20T14:30:50.450544,-12.114503816793894,4.847328244274809,-3.6412213740458017,0.19871873779296872,0.8259995727539062,9.246406811523437,29.377058823529413
2025-10-20T14:30:50.467356,-11.435114503816793,4.862595419847328,-3.9770992366412212,0.105344873046875,0.9193734375,9.334992272949219,29.424117647058825
2025-10-20T14:30:50.484208,-12.374045801526718,4.0458015267175576,-4.374045801526718,0.15083470458984374,1.0079588989257813,9.323021264648437,29.424117647058825
2025-10-20T14:30:50.501065,-13.931297709923664,3.816793893129771,-4.473282442748092,0.23702596435546874,0.8092401611328125,9.222464794921875,29.377058823529413
2025-10-20T14:30:50.517943,-15.01526717557252,3.3435114503816794,-5.00763358778626,0.24181436767578124,0.7900865478515624,9.10993731689453,29.424117647058825
2025-10-20T14:30:50.534790,-14.893129770992367,3.312977099236641,-5.480916030534351,0.36391865234375,0.6631938598632812,8.94473740234375,29.377058823529413
2025-10-20T14:30:50.551682,-14.335877862595419,3.1603053435114505,-6.412213740458015,0.3184288208007812,0.488417138671875,8.985438830566405,29.330000000000002
2025-10-20T14:30:50.568545,-14.068702290076336,2.8931297709923665,-7.206106870229007,0.4644751220703125,0.7158662963867187,9.18655177001953,29.471176470588237
2025-10-20T14:30:50.585398,-15.236641221374045,2.145038167938931,-7.862595419847328,0.3950432739257812,0.6416460449218749,9.485826977539062,29.377058823529413
2025-10-20T14:30:50.602334,-17.923664122137403,1.4961832061068703,-8.580152671755725,0.3399766357421875,0.718260498046875,9.481038574218749,29.377058823529413
2025-10-20T14:30:50.619209,-20.85496183206107,1.1221374045801527,-9.114503816793894,0.40940848388671874,0.5602431884765625,9.22485899658203,29.51823529411765
2025-10-20T14:30:50.636064,-23.328244274809162,1.0,-9.938931297709924,0.5626373901367188,0.46208092041015625,9.244012609863281,29.330000000000002
2025-10-20T14:30:50.652912,-25.068702290076335,1.4580152671755726,-10.870229007633588,0.49799394531249996,0.4836287353515625,9.141061938476563,29.28294117647059
2025-10-20T14:30:50.669786,-27.198473282442748,1.5038167938931297,-9.801526717557252,0.411802685546875,0.5386953735351562,9.306261853027344,29.424117647058825
2025-10-20T14:30:50.686675,-30.549618320610687,1.8549618320610688,-12.488549618320612,0.22505495605468748,0.5722141967773438,9.543287817382812,29.377058823529413
2025-10-20T14:30:50.703530,-33.25954198473283,2.351145038167939,-13.068702290076336,0.29448680419921874,0.5386953735351562,9.641450085449218,29.330000000000002
2025-10-20T14:30:50.720388,-39.770992366412216,2.5114503816793894,-13.648854961832061,0.19153613281249998,0.3447650390625,9.466673364257812,29.377058823529413
2025-10-20T14:30:50.737243,-43.2442748091603,3.0229007633587788,-14.374045801526718,0.08140285644531249,0.20350714111328125,9.284714038085937,29.377058823529413
2025-10-20T14:30:50.754089,-45.229007633587784,3.427480916030534,-15.450381679389313,-0.10295067138671875,0.105344873046875,9.162609753417968,29.330000000000002
2025-10-20T14:30:50.770929,-46.717557251908396,3.2442748091603053,-16.290076335877863,-0.16998831787109375,-0.11013327636718749,9.210493786621093,29.377058823529413
2025-10-20T14:30:50.787916,-48.02290076335878,2.7022900763358777,-17.396946564885496,-0.3591302490234375,-0.26336218261718747,9.315838659667968,29.330000000000002
2025-10-20T14:30:50.804782,-49.70992366412214,2.381679389312977,-18.27480916030534,-0.3854664672851562,-0.3064578125,9.287108239746093,29.377058823529413
2025-10-20T14:30:50.821640,-51.908396946564885,2.114503816793893,-19.0381679389313,-0.354341845703125,-0.4572925170898437,9.248801013183593,29.330000000000002
2025-10-20T14:30:50.838485,-52.41984732824427,2.0610687022900764,-19.778625954198475,-0.3136404174804687,-0.6488286499023437,9.081206896972656,29.424117647058825
2025-10-20T14:30:50.855329,-51.229007633587784,2.0229007633587788,-20.923664122137403,-0.4333505004882812,-0.8954314208984374,8.93755479736328,29.377058823529413
2025-10-20T14:30:50.872176,-49.29007633587786,1.8931297709923665,-21.458015267175572,-0.38786066894531246,-1.1372457885742187,8.978256225585938,29.424117647058825
2025-10-20T14:30:50.889022,-47.778625954198475,2.0610687022900764,-22.0,-0.26815058593749996,-1.2832920898437499,9.162609753417968,29.330000000000002
2025-10-20T14:30:50.905885,-47.152671755725194,2.33587786259542,-21.786259541984734,-0.19871873779296872,-1.6328455322265625,9.066841687011719,29.377058823529413
2025-10-20T14:30:50.922746,-46.52671755725191,2.7099236641221376,-21.267175572519083,-0.14604630126953125,-1.8507178833007811,8.911218579101561,29.424117647058825
2025-10-20T14:30:50.939626,-44.76335877862596,3.0229007633587788,-20.50381679389313,-0.04548983154296875,-2.013523596191406,8.70771143798828,29.424117647058825
2025-10-20T14:30:50.956492,-41.656488549618324,3.2442748091603053,-19.244274809160306,-0.15322890625,-2.3295582153320313,8.667010009765624,29.377058823529413
2025-10-20T14:30:50.973347,-37.83969465648855,3.450381679389313,-17.99236641221374,-0.2537853759765625,-2.7437551025390623,8.724470849609375,29.424117647058825
2025-10-20T14:30:50.990198,-34.7557251908397,3.122137404580153,-16.46564885496183,-0.047884033203124995,-2.844311572265625,8.870517150878905,29.23588235294118
2025-10-20T14:30:51.007040,-33.13740458015267,3.2900763358778624,-14.229007633587786,0.2346317626953125,-3.0693665283203124,9.267954626464844,29.377058823529413
2025-10-20T14:30:51.023892,-31.908396946564885,3.114503816793893,-11.885496183206106,0.2609679809570312,-3.0214824951171875,9.102754711914063,29.424117647058825
2025-10-20T14:30:51.040735,-29.374045801526716,3.7709923664122136,-9.50381679389313,-0.033518823242187495,-3.189076611328125,8.846575134277343,29.424117647058825
2025-10-20T14:30:51.057576,-29.229007633587788,3.6030534351145036,-7.427480916030534,-0.277727392578125,-3.438073583984375,8.633491186523438,29.377058823529413
2025-10-20T14:30:51.074425,-25.770992366412212,2.0229007633587788,-5.534351145038168,0.08379705810546874,-3.5290532470703124,8.681375219726561,29.377058823529413
2025-10-20T14:30:51.091263,-21.633587786259543,4.175572519083969,-3.3969465648854964,-0.3854664672851562,-3.4069489624023435,8.942343200683593,29.330000000000002
2025-10-20T14:30:51.108110,-21.954198473282442,4.5038167938931295,-1.618320610687023,-0.38786066894531246,-3.220201232910156,9.09796630859375,29.471176470588237
2025-10-20T14:30:51.124957,-21.717557251908396,4.938931297709924,-0.07633587786259542,-0.4285620971679687,-3.1292215698242187,9.095572106933593,29.471176470588237
2025-10-20T14:30:51.141820,-20.595419847328245,5.190839694656488,0.9007633587786259,-0.3902548706054687,-3.071760729980469,8.736441857910156,29.330000000000002
2025-10-20T14:30:51.158679,-18.580152671755727,5.656488549618321,1.1984732824427482,-0.47165772705078124,-2.942473840332031,8.552088330078124,29.424117647058825
2025-10-20T14:30:51.175561,-15.83969465648855,5.824427480916031,1.4045801526717556,-0.622492431640625,-2.961627453613281,8.583212951660157,29.471176470588237
2025-10-20T14:30:51.192417,-13.969465648854962,5.206106870229007,1.2213740458015268,-0.7757213378906249,-2.817975354003906,8.88009395751953,29.330000000000002
2025-10-20T14:30:51.209260,-13.725190839694656,5.122137404580153,0.7938931297709924,-0.7517793212890624,-2.6671406494140624,8.904035974121093,29.330000000000002
2025-10-20T14:30:51.226112,-13.916030534351146,4.6183206106870225,0.5801526717557252,-0.737414111328125,-2.6336218261718747,8.712499841308594,29.28294117647059
2025-10-20T14:30:51.242962,-13.15267175572519,3.9236641221374047,-0.3816793893129771,-0.679953271484375,-2.7365724975585937,8.283937744140625,29.424117647058825
2025-10-20T14:30:51.259836,-10.961832061068701,2.7709923664122136,-1.213740458015267,-0.7589619262695312,-2.6096798095703124,8.441955053710936,29.471176470588237
2025-10-20T14:30:51.276700,-9.557251908396946,2.2519083969465647,-2.3587786259541983,-0.5985504150390625,-2.7533319091796873,8.473079675292968,29.471176470588237
2025-10-20T14:30:51.293543,-9.267175572519085,2.053435114503817,-3.0229007633587788,-0.5195417602539062,-2.7054478759765623,8.916006982421875,29.51823529411765
2025-10-20T14:30:51.310388,-9.84732824427481,2.282442748091603,-3.7480916030534353,-0.3902548706054687,-2.73896669921875,8.755595471191405,29.424117647058825
2025-10-20T14:30:51.327244,-10.183206106870228,2.648854961832061,-4.244274809160306,-0.33039982910156246,-3.0334535034179684,8.434772448730468,29.377058823529413
2025-10-20T14:30:51.344093,-9.458015267175572,2.946564885496183,-4.9541984732824424,-0.08379705810546874,-3.1076737548828124,8.358157995605469,29.424117647058825
2025-10-20T14:30:51.360944,-8.15267175572519,3.1526717557251906,-5.267175572519084,0.0,-3.1794998046874996,8.513781103515624,29.330000000000002
2025-10-20T14:30:51.377793,-8.045801526717558,3.6946564885496183,-5.770992366412214,0.02154781494140625,-3.296815686035156,8.8489693359375,29.377058823529413
2025-10-20T14:30:51.394706,-8.564885496183207,1.9618320610687023,-3.954198473282443,0.0909796630859375,-3.3351229125976563,8.810662109374999,29.330000000000002
2025-10-20T14:30:51.411579,-8.106870229007633,4.022900763358779,-5.770992366412214,0.1484405029296875,-3.4452561889648434,8.47786807861328,29.424117647058825
2025-10-20T14:30:51.428439,-7.183206106870229,4.068702290076335,-5.526717557251908,0.031124621582031248,-3.4165257690429685,8.32463917236328,29.424117647058825
2025-10-20T14:30:51.445388,-6.648854961832061,3.7022900763358777,-5.145038167938932,-0.143652099609375,-3.6200329101562496,8.480262280273436,29.471176470588237
2025-10-20T14:30:51.462261,-6.9541984732824424,3.114503816793893,-4.938931297709924,0.033518823242187495,-3.373430139160156,8.966285217285156,29.424117647058825
2025-10-20T14:30:51.479103,-8.213740458015268,2.8473282442748094,-4.206106870229007,0.10773907470703124,-3.679887951660156,8.973467822265624,29.330000000000002
2025-10-20T14:30:51.495949,-8.473282442748092,2.3282442748091605,-4.030534351145038,0.031124621582031248,-3.7924154296875,8.662221606445312,29.471176470588237
2025-10-20T14:30:51.512836,-7.748091603053435,2.114503816793893,-3.6564885496183206,-0.1197100830078125,-3.766079211425781,8.336610180664062,29.424117647058825
2025-10-20T14:30:51.529737,-7.00763358778626,2.1374045801526718,-3.4732824427480917,-0.1292868896484375,-3.7421371948242186,8.451531860351562,29.377058823529413
2025-10-20T14:30:51.546596,-7.312977099236641,2.687022900763359,-3.0839694656488548,-0.12210428466796874,-3.6727053466796873,8.688557824707031,29.424117647058825
2025-10-20T14:30:51.563445,-7.900763358778626,3.068702290076336,-2.7099236641221376,-0.02633621826171875,-3.816357446289062,8.757989672851561,29.424117647058825
2025-10-20T14:30:51.580295,-7.6106870229007635,3.5267175572519083,-2.5267175572519083,-0.1867477294921875,-3.890577697753906,8.51617530517578,29.424117647058825
2025-10-20T14:30:51.597146,-6.519083969465649,3.5267175572519083,-2.564885496183206,-0.411802685546875,-3.7301661865234372,8.190563879394531,29.377058823529413
2025-10-20T14:30:51.613990,-5.305343511450381,3.3969465648854964,-2.50381679389313,-0.40940848388671874,-3.6176387084960937,8.40125362548828,29.424117647058825
2025-10-20T14:30:51.630843,-5.0534351145038165,3.404580152671756,-2.404580152671756,-0.40940848388671874,-3.5051112304687497,8.489839086914062,29.471176470588237
2025-10-20T14:30:51.647693,-5.305343511450381,3.0381679389312977,-2.3282442748091605,-0.430956298828125,-3.574543078613281,8.597578161621094,29.377058823529413
2025-10-20T14:30:51.664544,-5.091603053435114,2.1068702290076335,-2.236641221374046,-0.32561142578124996,-3.5817256835937497,8.228871105957031,29.330000000000002
2025-10-20T14:30:51.681394,-4.083969465648855,1.4274809160305344,-2.519083969465649,-0.5410895751953124,-3.5889082885742187,8.298302954101562,29.424117647058825
2025-10-20T14:30:51.698244,-3.6259541984732824,0.8396946564885496,-2.3893129770992365,-0.39264907226562495,-3.5003228271484375,8.418013037109375,29.471176470588237
2025-10-20T14:30:51.715081,-3.2061068702290076,0.2900763358778626,-2.4427480916030535,-0.2154781494140625,-3.450044592285156,8.659827404785156,29.424117647058825
2025-10-20T14:30:51.731925,-3.33587786259542,0.4122137404580153,-2.4885496183206106,-0.19153613281249998,-3.459621398925781,8.595183959960938,29.330000000000002
2025-10-20T14:30:51.748770,-3.3282442748091605,0.4122137404580153,-2.6564885496183206,-0.3064578125,-3.5386300537109374,8.501810095214843,29.28294117647059
2025-10-20T14:30:51.765642,-2.5572519083969465,0.549618320610687,-2.633587786259542,-0.27293898925781246,-3.5434184570312497,8.451531860351562,29.330000000000002
2025-10-20T14:30:51.782509,-2.1068702290076335,0.7557251908396947,-2.7251908396946565,-0.2920926025390625,-3.6272155151367187,8.508992700195313,29.330000000000002
2025-10-20T14:30:51.799381,-2.1755725190839694,1.381679389312977,-2.7938931297709924,-0.4429273071289062,-3.5913024902343746,8.75320126953125,29.377058823529413
2025-10-20T14:30:51.816249,-2.6946564885496183,1.4122137404580153,-2.816793893129771,-0.29448680419921874,-3.6080619018554687,8.793902697753905,29.330000000000002
2025-10-20T14:30:51.833118,-2.687022900763359,1.465648854961832,-3.0229007633587788,-0.21068974609375,-3.5601778686523438,8.621520178222656,29.377058823529413
2025-10-20T14:30:51.849963,-2.0916030534351147,1.0229007633587786,-3.198473282442748,-0.16759411621093748,-3.7134067749023436,8.540117321777343,29.424117647058825
2025-10-20T14:30:51.866818,-1.5648854961832062,0.8091603053435115,-3.4427480916030535,-0.20829554443359374,-3.7110125732421873,8.568847741699217,29.330000000000002
2025-10-20T14:30:51.883687,-1.5038167938931297,0.732824427480916,-3.6106870229007635,-0.21308394775390624,-3.794809631347656,8.647856396484375,29.377058823529413
2025-10-20T14:30:51.900554,-1.5114503816793894,0.5725190839694656,-3.7709923664122136,-0.19153613281249998,-3.7158009765625,8.609549169921875,29.424117647058825
2025-10-20T14:30:51.917410,-1.5038167938931297,0.7786259541984732,-4.061068702290076,-0.28730419921875,-3.6439749267578123,8.662221606445312,29.377058823529413
2025-10-20T14:30:51.934257,-0.7404580152671756,0.6793893129770993,-4.404580152671755,-0.28730419921875,-3.5122938354492184,8.556876733398436,29.471176470588237
2025-10-20T14:30:51.951136,-0.4580152671755725,0.916030534351145,-4.519083969465649,-0.229843359375,-3.5098996337890624,8.652644799804687,29.330000000000002
2025-10-20T14:30:51.967990,-0.8320610687022901,1.2671755725190839,-4.587786259541985,-0.44532150878906246,-3.4452561889648434,8.772354882812499,29.377058823529413
2025-10-20T14:30:51.984838,-1.3511450381679388,1.3435114503816794,-4.847328244274809,-0.3447650390625,-3.4356793823242184,8.760383874511719,29.424117647058825
2025-10-20T14:30:52.001688,-1.5190839694656488,1.3129770992366412,-5.305343511450381,-0.4477157104492187,-3.3973721557617185,8.700528833007812,29.424117647058825
2025-10-20T14:30:52.018536,-1.6259541984732824,1.1984732824427482,-5.656488549618321,-0.40462008056640625,-3.299209887695312,8.662221606445312,29.471176470588237
2025-10-20T14:30:52.035384,-1.2748091603053435,1.183206106870229,-6.091603053435114,-0.4165910888671875,-3.19865341796875,8.655039001464843,29.28294117647059
2025-10-20T14:30:52.052229,-1.5877862595419847,1.3587786259541985,-6.206106870229007,-0.3447650390625,-3.1842882080078123,8.80347950439453,29.424117647058825
2025-10-20T14:30:52.069072,-2.2595419847328246,1.6106870229007633,-6.3816793893129775,-0.30406361083984373,-3.2345664428710936,8.820238916015624,29.424117647058825
2025-10-20T14:30:52.085920,-2.595419847328244,1.6488549618320612,-6.6106870229007635,-0.28730419921875,-3.323151904296875,8.674192614746094,29.471176470588237
2025-10-20T14:30:52.102767,-2.5801526717557253,1.6030534351145038,-6.8396946564885495,-0.23223756103515625,-3.438073583984375,8.683769421386717,29.330000000000002
2025-10-20T14:30:52.119613,-2.427480916030534,1.450381679389313,-6.99236641221374,-0.239420166015625,-3.4428619873046875,8.597578161621094,29.424117647058825
2025-10-20T14:30:52.136483,-2.50381679389313,1.465648854961832,-7.320610687022901,-0.2705447875976562,-3.4715924072265625,8.892064965820312,29.377058823529413
2025-10-20T14:30:52.153344,-2.816793893129771,1.3587786259541985,-7.770992366412214,-0.16998831787109375,-3.5003228271484375,8.82263311767578,29.51823529411765
2025-10-20T14:30:52.170202,-2.984732824427481,1.5190839694656488,-7.572519083969466,-0.09337386474609374,-3.5194764404296874,8.71489404296875,29.424117647058825
2025-10-20T14:30:52.187048,-2.9618320610687023,1.702290076335878,-7.564885496183206,-0.040701428222656245,-3.5194764404296874,8.681375219726561,29.424117647058825
2025-10-20T14:30:52.203894,-3.1755725190839694,0.0,-7.267175572519084,-0.03591302490234375,-3.404554760742187,8.662221606445312,29.377058823529413
2025-10-20T14:30:52.220738,-3.7251908396946565,2.5877862595419847,-6.961832061068702,-0.1484405029296875,-3.402160559082031,8.836998327636719,29.330000000000002
2025-10-20T14:30:52.237659,-4.145038167938932,2.6412213740458017,-6.816793893129771,-0.0909796630859375,-3.4572271972656248,8.722076647949219,29.377058823529413
2025-10-20T14:30:52.254523,-3.946564885496183,2.519083969465649,-6.343511450381679,-0.17477672119140625,-3.5769372802734374,8.588001354980468,29.330000000000002
2025-10-20T14:30:52.271365,-3.6106870229007635,2.2977099236641223,-5.900763358778626,-0.28730419921875,-3.5577836669921874,8.695740429687499,29.424117647058825
2025-10-20T14:30:52.288330,-3.3206106870229006,2.16793893129771,-5.687022900763359,-0.3016694091796875,-3.660734338378906,8.681375219726561,29.330000000000002
2025-10-20T14:30:52.305200,-2.83206106870229,1.702290076335878,-5.32824427480916,-0.229843359375,-3.6296097167968746,8.59997236328125,29.471176470588237
2025-10-20T14:30:52.322051,-2.2977099236641223,1.534351145038168,-4.900763358778626,-0.1149216796875,-3.6583401367187496,8.573636145019531,29.471176470588237
2025-10-20T14:30:52.338903,-1.0458015267175573,1.5419847328244274,-4.465648854961832,-0.07422025146484375,-3.5386300537109374,8.461108666992187,29.330000000000002
2025-10-20T14:30:52.355762,0.5038167938931297,1.5572519083969465,-4.106870229007634,-0.055066638183593745,-3.507505432128906,8.40843623046875,29.330000000000002
2025-10-20T14:30:52.372625,1.5877862595419847,2.099236641221374,-3.4580152671755724,-0.14604630126953125,-3.603273498535156,8.327033374023436,29.330000000000002
2025-10-20T14:30:52.389480,3.030534351145038,2.015267175572519,-2.83206106870229,-0.14604630126953125,-3.6727053466796873,8.444349255371094,29.330000000000002
2025-10-20T14:30:52.406328,4.625954198473282,1.8549618320610688,-2.5877862595419847,-0.2920926025390625,-3.6104561035156246,8.458714465332031,29.377058823529413
2025-10-20T14:30:52.423179,6.129770992366412,1.2595419847328244,-2.213740458015267,-0.3854664672851562,-3.6487633300781246,8.564059338378906,29.330000000000002
2025-10-20T14:30:52.440022,7.67175572519084,0.5572519083969466,-1.8625954198473282,-0.4381389038085937,-3.3782185424804685,8.501810095214843,29.424117647058825
2025-10-20T14:30:52.456872,9.13740458015267,-0.12213740458015267,-1.748091603053435,-0.3232172241210937,-3.4668040039062498,8.382100012207031,29.377058823529413
2025-10-20T14:30:52.473722,10.366412213740459,-0.45038167938931295,-1.2213740458015268,-0.16998831787109375,-3.2824504760742186,8.487444885253906,29.424117647058825
2025-10-20T14:30:52.490572,11.50381679389313,-0.5190839694656488,-0.8702290076335878,-0.09576806640624999,-3.1196447631835937,8.449137658691406,29.330000000000002
2025-10-20T14:30:52.507419,13.007633587786259,-0.7022900763358778,-0.5267175572519084,-0.009576806640625,-3.2034418212890623,8.75320126953125,29.28294117647059
2025-10-20T14:30:52.524267,11.793893129770993,-0.6106870229007634,-0.10687022900763359,-0.076614453125,-3.1316157714843746,8.640673791503906,29.330000000000002
2025-10-20T14:30:52.541117,14.335877862595419,-0.7251908396946565,0.022900763358778626,-0.1580173095703125,-3.0621839233398433,8.765172277832031,29.424117647058825
2025-10-20T14:30:52.557965,14.557251908396946,-0.9389312977099237,0.44274809160305345,-0.34237083740234375,-2.9855694702148434,8.757989672851561,29.471176470588237
2025-10-20T14:30:52.574805,14.648854961832061,-1.4198473282442747,0.5038167938931297,-0.28012159423828126,-2.844311572265625,8.74601866455078,29.330000000000002
2025-10-20T14:30:52.591646,14.419847328244275,-1.900763358778626,0.8015267175572519,-0.3064578125,-2.7916391357421872,8.832209924316405,29.424117647058825
2025-10-20T14:30:52.608524,14.13740458015267,-1.8015267175572518,1.183206106870229,-0.1149216796875,-2.703053674316406,8.827421520996094,29.377058823529413
2025-10-20T14:30:52.625385,13.50381679389313,-1.8015267175572518,1.0458015267175573,0.13646949462890623,-2.664746447753906,8.863334545898438,29.424117647058825
2025-10-20T14:30:52.642242,12.870229007633588,-1.5114503816793894,1.6259541984732824,-0.03591302490234375,-2.674323254394531,9.004592443847656,29.471176470588237
2025-10-20T14:30:52.659089,11.82442748091603,-1.0763358778625953,1.4961832061068703,0.00718260498046875,-2.6815058593749996,8.767566479492187,29.471176470588237
2025-10-20T14:30:52.675938,11.007633587786259,-1.0305343511450382,1.4961832061068703,-0.08140285644531249,-2.6862942626953124,8.793902697753905,29.330000000000002
2025-10-20T14:30:52.692781,10.351145038167939,-0.8854961832061069,1.6793893129770991,-0.181959326171875,-2.748543505859375,8.896853369140624,29.471176470588237
2025-10-20T14:30:52.709622,9.67175572519084,-1.015267175572519,1.2595419847328244,-0.22266075439453123,-2.731784094238281,8.913612780761719,29.28294117647059
2025-10-20T14:30:52.726463,8.603053435114504,-0.9541984732824428,1.1068702290076335,-0.19153613281249998,-2.748543505859375,8.971073620605468,29.424117647058825
2025-10-20T14:30:52.743309,7.916030534351145,-1.1450381679389312,1.0305343511450382,-0.24660277099609373,-2.760514514160156,8.9255837890625,29.330000000000002
2025-10-20T14:30:52.760155,7.366412213740458,-1.6106870229007633,0.46564885496183206,-0.45968671875,-2.834734765625,8.904035974121093,29.377058823529413
2025-10-20T14:30:52.776997,6.67175572519084,-1.4961832061068703,0.3053435114503817,-0.2609679809570312,-2.798821740722656,8.894459167480468,29.330000000000002
2025-10-20T14:30:52.793865,6.549618320610687,-1.5267175572519085,-0.25190839694656486,-0.3016694091796875,-2.722207287597656,8.844180932617187,29.377058823529413
2025-10-20T14:30:52.810729,6.435114503816794,-0.916030534351145,-0.33587786259541985,-0.15322890625,-2.6815058593749996,8.870517150878905,29.471176470588237
2025-10-20T14:30:52.827577,5.9541984732824424,-0.09923664122137404,-0.6717557251908397,-0.24660277099609373,-2.6791116577148437,8.643067993164061,29.330000000000002
2025-10-20T14:30:52.844437,5.7251908396946565,0.15267175572519084,-0.9465648854961832,-0.4572925170898437,-2.4564509033203126,8.815450512695312,29.377058823529413
2025-10-20T14:30:52.861293,5.236641221374046,0.5190839694656488,-1.633587786259542,-0.59376201171875,-2.549824768066406,9.0021982421875,29.424117647058825
2025-10-20T14:30:52.878146,4.183206106870229,-0.16030534351145037,-2.1068702290076335,-0.6488286499023437,-2.4779987182617185,9.272743029785156,29.424117647058825
2025-10-20T14:30:52.894994,2.7557251908396947,-0.5648854961832062,-2.4122137404580153,-0.5722141967773438,-2.499546533203125,9.124302526855468,29.377058823529413
2025-10-20T14:30:52.911840,0.9083969465648855,-0.9465648854961832,-2.8244274809160306,-0.5506663818359374,-2.461239306640625,9.212887988281249,29.330000000000002
2025-10-20T14:30:52.928688,-0.9770992366412213,-1.0381679389312977,-3.015267175572519,-0.5243301635742187,-2.4851813232421875,9.102754711914063,29.330000000000002
2025-10-20T14:30:52.945554,-2.8244274809160306,-1.0305343511450382,-3.4656488549618323,-0.5147533569335937,-2.3319524169921872,9.241618408203124,29.377058823529413
2025-10-20T14:30:52.962415,-4.854961832061068,-0.5954198473282443,-3.854961832061069,-0.6081272216796875,-2.221819140625,9.313444458007812,29.330000000000002
2025-10-20T14:30:52.979266,-6.809160305343512,0.0916030534351145,-2.0076335877862594,-0.565031591796875,-2.310404602050781,9.387664709472656,29.330000000000002
2025-10-20T14:30:52.996116,-8.870229007633588,1.0916030534351144,-4.022900763358779,-0.584185205078125,-2.310404602050781,9.160215551757812,29.377058823529413
2025-10-20T14:30:53.012967,-10.49618320610687,1.6564885496183206,-4.0534351145038165,-0.5315127685546874,-2.731784094238281,9.188945971679686,29.330000000000002
2025-10-20T14:30:53.029818,-12.198473282442748,2.4198473282442747,-4.1679389312977095,-0.4740519287109375,-2.8107927490234372,9.150638745117186,29.377058823529413
2025-10-20T14:30:53.046672,-11.740458015267176,2.7099236641221376,-4.114503816793893,-0.4381389038085937,-2.9735984619140625,9.30147344970703,29.377058823529413
2025-10-20T14:30:53.063511,-14.801526717557252,2.8702290076335877,-3.633587786259542,-0.39983167724609375,-3.0142998901367184,9.258377819824219,29.424117647058825
2025-10-20T14:30:53.080412,-15.755725190839694,2.7404580152671754,-3.030534351145038,-0.316034619140625,-3.1292215698242187,9.279925634765624,29.377058823529413
2025-10-20T14:30:53.097273,-16.52671755725191,2.6946564885496183,-2.4732824427480917,-0.3136404174804687,-3.162740393066406,9.009380847167968,29.424117647058825
2025-10-20T14:30:53.114128,-17.33587786259542,2.6793893129770994,-1.5648854961832062,-0.2154781494140625,-3.143586779785156,8.954314208984375,29.424117647058825
2025-10-20T14:30:53.131062,-18.0381679389313,3.145038167938931,-0.5267175572519084,-0.11252747802734374,-3.1794998046874996,9.076418493652342,29.424117647058825
2025-10-20T14:30:53.147937,-17.954198473282442,3.4198473282442747,0.6335877862595419,-0.24181436767578124,-3.3590649291992185,8.990227233886719,29.28294117647059
2025-10-20T14:30:53.164784,-17.106870229007633,3.427480916030534,1.366412213740458,-0.20829554443359374,-3.5146880371093747,8.79150849609375,29.377058823529413
2025-10-20T14:30:53.181628,-16.328244274809162,3.648854961832061,1.900763358778626,-0.19632453613281248,-3.4644098022460934,8.67658681640625,29.330000000000002
2025-10-20T14:30:53.198473,-15.297709923664122,3.931297709923664,2.3206106870229006,-0.07422025146484375,-3.5146880371093747,8.832209924316405,29.330000000000002
2025-10-20T14:30:53.215334,-14.381679389312977,4.404580152671755,2.5801526717557253,-0.17238251953125,-3.361459130859375,8.872911352539061,29.377058823529413
2025-10-20T14:30:53.232194,-13.427480916030534,4.450381679389313,2.9160305343511452,-0.23702596435546874,-3.1651345947265623,8.693346228027343,29.424117647058825
2025-10-20T14:30:53.249056,-12.458015267175572,4.595419847328245,2.732824427480916,-0.34715924072265625,-3.0980969482421874,8.499415893554687,29.377058823529413
2025-10-20T14:30:53.265912,-11.458015267175572,4.435114503816794,2.4656488549618323,-0.36152445068359373,-3.0933085449218747,8.568847741699217,29.377058823529413
2025-10-20T14:30:53.282763,-10.748091603053435,4.2748091603053435,2.1068702290076335,-0.33518823242187495,-2.999934680175781,8.583212951660157,29.424117647058825
2025-10-20T14:30:53.299605,-10.244274809160306,3.9236641221374047,1.7557251908396947,-0.32082302246093747,-2.806004345703125,8.506598498535157,29.424117647058825
2025-10-20T14:30:53.316456,-10.01526717557252,3.480916030534351,1.381679389312977,-0.3280056274414062,-2.8562825805664063,8.518569506835936,29.377058823529413
2025-10-20T14:30:53.333300,-9.122137404580153,2.6946564885496183,0.6259541984732825,-0.603338818359375,-2.770091320800781,8.413224633789062,29.330000000000002
2025-10-20T14:30:53.350158,-8.297709923664122,1.9923664122137406,-0.2366412213740458,-0.39983167724609375,-2.8371289672851563,8.427589843749999,29.377058823529413
2025-10-20T14:30:53.367011,-7.038167938931298,1.3969465648854962,-0.8778625954198473,-0.17477672119140625,-2.8227637573242186,8.329427575683594,29.377058823529413
2025-10-20T14:30:53.383856,-6.396946564885496,1.0458015267175573,-1.702290076335878,-0.28012159423828126,-2.7365724975585937,8.40843623046875,29.330000000000002
2025-10-20T14:30:53.400694,-6.114503816793893,1.1297709923664123,-2.4122137404580153,-0.24181436767578124,-2.8012159423828122,8.305485559082031,29.28294117647059
2025-10-20T14:30:53.417547,-7.816793893129771,0.9083969465648855,-2.618320610687023,-0.2346317626953125,-2.9041666137695312,8.283937744140625,29.377058823529413
2025-10-20T14:30:53.434402,-5.267175572519084,0.4198473282442748,-3.2213740458015265,-0.16998831787109375,-3.0741549316406247,8.717288244628906,29.330000000000002
2025-10-20T14:30:53.451435,-4.6106870229007635,-0.24427480916030533,-3.5877862595419847,-0.14604630126953125,-3.0813375366210938,8.547299926757812,29.330000000000002
2025-10-20T14:30:53.468419,-5.740458015267175,-0.32061068702290074,-3.8702290076335877,-0.40222587890625,-3.1771056030273437,8.257601525878906,29.330000000000002
2025-10-20T14:30:53.485339,-3.122137404580153,-0.6259541984732825,-3.877862595419847,-0.45010991210937495,-3.208230224609375,8.298302954101562,29.28294117647059
2025-10-20T14:30:53.502208,-2.49618320610687,-0.9694656488549618,-3.8091603053435112,-0.24660277099609373,-3.3327287109375,8.279149340820313,29.424117647058825
2025-10-20T14:30:53.519059,-1.6870229007633588,-1.213740458015267,-3.7251908396946565,-0.12449848632812499,-3.318363500976562,8.506598498535157,29.377058823529413
2025-10-20T14:30:53.535902,-0.25190839694656486,-0.022900763358778626,-3.5267175572519083,-0.14125789794921875,-3.5003228271484375,8.279149340820313,29.471176470588237
2025-10-20T14:30:53.552754,1.381679389312977,-2.564885496183206,-2.877862595419847,-0.19153613281249998,-3.5434184570312497,8.28633194580078,29.424117647058825
2025-10-20T14:30:53.569596,2.717557251908397,-3.0763358778625953,-2.5267175572519083,-0.229843359375,-3.5793314819335937,8.410830432128906,29.330000000000002
2025-10-20T14:30:53.586437,4.137404580152672,-3.236641221374046,-2.068702290076336,-0.1771709228515625,-3.687070556640625,8.413224633789062,29.377058823529413
2025-10-20T14:30:53.603276,5.793893129770993,-3.4198473282442747,-1.3129770992366412,-0.3112462158203125,-3.6056677001953124,8.497021691894531,29.377058823529413
2025-10-20T14:30:53.620117,8.076335877862595,-3.6793893129770994,-1.0534351145038168,-0.20829554443359374,-3.5817256835937497,8.66940421142578,29.330000000000002
2025-10-20T14:30:53.636956,10.923664122137405,-4.175572519083969,-0.45038167938931295,-0.296881005859375,-3.6942531616210936,8.449137658691406,29.424117647058825
2025-10-20T14:30:53.653804,13.564885496183207,-4.282442748091603,-0.030534351145038167,-0.3232172241210937,-3.69664736328125,8.386888415527343,29.377058823529413
2025-10-20T14:30:53.670666,16.206106870229007,-4.458015267175573,0.366412213740458,-0.39983167724609375,-3.8139632446289062,8.40843623046875,29.424117647058825
2025-10-20T14:30:53.687545,19.68702290076336,-4.541984732824427,0.5343511450381679,-0.5195417602539062,-4.062960217285156,8.360552197265624,29.377058823529413
2025-10-20T14:30:53.704418,24.46564885496183,-4.9541984732824424,0.6335877862595419,-0.7613561279296874,-4.070142822265625,8.135497241210937,29.377058823529413
2025-10-20T14:30:53.721277,30.450381679389313,-5.427480916030534,0.5267175572519084,-0.6296750366210937,-3.821145849609375,7.975085729980468,29.424117647058825
2025-10-20T14:30:53.738129,35.74809160305343,-6.061068702290076,0.6870229007633588,-0.6871358764648438,-3.1076737548828124,8.532934716796875,29.377058823529413
2025-10-20T14:30:53.754985,38.70229007633588,-6.206106870229007,1.1374045801526718,-0.5315127685546874,-2.748543505859375,8.858546142578124,29.377058823529413
2025-10-20T14:30:53.771830,39.770992366412216,-6.0458015267175576,1.8244274809160306,-0.5147533569335937,-2.482787121582031,8.741230261230468,29.330000000000002
2025-10-20T14:30:53.788695,40.717557251908396,-6.656488549618321,2.3587786259541983,-0.6727706665039062,-2.70065947265625,9.04050546875,29.471176470588237
2025-10-20T14:30:53.805550,41.49618320610687,-7.129770992366412,2.8396946564885495,-0.3280056274414062,-3.189076611328125,8.904035974121093,29.377058823529413
2025-10-20T14:30:53.822398,43.56488549618321,-6.809160305343512,2.7786259541984735,-0.9121908325195311,-2.9472622436523435,8.805873706054687,29.330000000000002
2025-10-20T14:30:53.839237,45.87022900763359,-7.755725190839694,2.2442748091603053,-0.63206923828125,-2.583343591308594,8.999804040527343,29.330000000000002
2025-10-20T14:30:53.856102,47.412213740458014,-7.916030534351145,3.900763358778626,-0.7541735229492187,-1.5059528442382812,9.191340173339842,29.377058823529413
2025-10-20T14:30:53.873064,46.42748091603053,-9.748091603053435,2.2290076335877864,-0.689530078125,-1.2832920898437499,9.579200842285156,29.377058823529413
2025-10-20T14:30:53.889970,44.12213740458015,-6.2748091603053435,2.786259541984733,-0.6775590698242188,-1.0271125122070313,9.358934289550781,29.424117647058825
2025-10-20T14:30:53.906840,40.587786259541986,-6.9465648854961835,3.0610687022900764,-0.7062894897460937,-1.0103531005859374,9.658209497070311,29.377058823529413
2025-10-20T14:30:53.923750,35.80152671755725,-6.114503816793893,3.2977099236641223,-0.40222587890625,-1.7453730102539062,9.991003527832031,29.330000000000002
2025-10-20T14:30:53.940670,31.580152671755727,-6.1603053435114505,3.145038167938931,0.05027823486328125,-2.118868469238281,9.801861596679688,29.377058823529413
2025-10-20T14:30:53.957531,31.053435114503817,-5.076335877862595,2.6946564885496183,0.19393033447265623,-1.9416975463867185,9.090783703613281,29.424117647058825
2025-10-20T14:30:53.974488,31.6793893129771,-5.33587786259542,2.946564885496183,-0.143652099609375,-1.4413093994140624,8.975862023925782,29.471176470588237
2025-10-20T14:30:53.991363,30.51145038167939,-4.099236641221374,2.854961832061069,-0.11252747802734374,-1.3168109130859373,9.445125549316407,29.424117647058825
2025-10-20T14:30:54.008214,26.87786259541985,-3.282442748091603,3.099236641221374,0.00239420166015625,-1.1420341918945311,9.528922607421874,29.377058823529413
2025-10-20T14:30:54.025062,23.33587786259542,-3.0916030534351147,3.3969465648854964,0.24181436767578124,-1.2617442749023438,9.773131176757811,29.377058823529413
2025-10-20T14:30:54.042819,20.541984732824428,-3.2442748091603053,3.3740458015267176,0.2059013427734375,-1.8052280517578123,9.880870251464843,29.377058823529413
2025-10-20T14:30:54.059714,19.47328244274809,-3.1374045801526718,3.122137404580153,0.28969840087890625,-1.6615759521484375,9.160215551757812,29.330000000000002
2025-10-20T14:30:54.076582,19.19083969465649,-3.16793893129771,3.0610687022900764,-0.09816226806640624,-0.7685387329101562,9.011775048828124,29.377058823529413
2025-10-20T14:30:54.093498,17.045801526717558,-2.8244274809160306,3.4427480916030535,0.009576806640625,-0.3447650390625,9.600748657226562,29.424117647058825
2025-10-20T14:30:54.110361,11.885496183206106,-1.5038167938931297,4.0534351145038165,0.11013327636718749,-0.19393033447265623,9.787496386718749,29.377058823529413
2025-10-20T14:30:54.127209,6.3816793893129775,-1.3053435114503817,4.549618320610687,0.047884033203124995,-0.05985504150390625,9.698910925292969,29.28294117647059
2025-10-20T14:30:54.144055,2.0381679389312977,-0.7480916030534351,4.870229007633588,-0.047884033203124995,-0.17956512451171874,9.595960253906249,29.424117647058825
2025-10-20T14:30:54.160914,-2.3740458015267176,-0.19083969465648856,5.091603053435114,-0.22744915771484372,-0.40940848388671874,9.200916979980468,29.330000000000002
2025-10-20T14:30:54.177761,-6.809160305343512,0.31297709923664124,5.198473282442748,-0.22266075439453123,-0.39264907226562495,9.253589416503905,29.377058823529413
2025-10-20T14:30:54.194607,-11.351145038167939,0.9847328244274809,5.3816793893129775,0.04548983154296875,-0.40940848388671874,9.588777648925781,29.330000000000002
2025-10-20T14:30:54.211447,-17.022900763358777,1.3358778625954197,6.015267175572519,0.09576806640624999,-0.51714755859375,9.847351428222655,29.424117647058825
2025-10-20T14:30:54.228312,-22.885496183206108,1.2061068702290076,6.236641221374046,0.0430956298828125,-0.59376201171875,9.670180505371093,29.28294117647059
2025-10-20T14:30:54.245166,-27.732824427480917,1.4809160305343512,6.404580152671755,0.11013327636718749,-0.39743747558593745,9.210493786621093,29.330000000000002
2025-10-20T14:30:54.262014,-31.3206106870229,2.068702290076336,6.435114503816794,0.028730419921875,-0.430956298828125,9.0788126953125,29.424117647058825
2025-10-20T14:30:54.278869,-34.43511450381679,2.435114503816794,6.358778625954199,0.1867477294921875,-0.3711012573242187,9.375693701171874,29.28294117647059
2025-10-20T14:30:54.295875,-36.961832061068705,2.9770992366412212,6.312977099236641,0.13646949462890623,-0.39743747558593745,9.406818322753905,29.377058823529413
2025-10-20T14:30:54.312825,-39.3206106870229,3.114503816793893,6.465648854961832,-0.011971008300781249,-0.612915625,9.253589416503905,29.424117647058825
2025-10-20T14:30:54.329704,-41.49618320610687,3.7022900763358777,6.603053435114504,-0.04548983154296875,-0.612915625,9.107543115234375,29.377058823529413
2025-10-20T14:30:54.346565,-42.13740458015267,4.427480916030534,6.5038167938931295,-0.0383072265625,-0.7517793212890624,8.798691101074219,29.424117647058825
2025-10-20T14:30:54.363416,-42.916030534351144,3.801526717557252,6.0458015267175576,-0.076614453125,-1.1324573852539062,8.856151940917968,29.471176470588237
2025-10-20T14:30:54.380265,-38.603053435114504,3.4122137404580153,5.809160305343512,-0.1292868896484375,-1.3287819213867187,8.736441857910156,29.377058823529413
2025-10-20T14:30:54.397108,-36.11450381679389,3.015267175572519,5.580152671755725,-0.06943184814453125,-1.4030021728515625,8.8489693359375,29.424117647058825
2025-10-20T14:30:54.413965,-33.88549618320611,2.480916030534351,5.427480916030534,-0.12449848632812499,-1.668758557128906,8.872911352539061,29.424117647058825
2025-10-20T14:30:54.430814,-31.83206106870229,1.9694656488549618,5.465648854961832,-0.1580173095703125,-1.5705962890624998,8.781931689453124,29.377058823529413
2025-10-20T14:30:54.447680,-29.328244274809162,3.8091603053435112,5.6106870229007635,-0.2609679809570312,-1.62805712890625,8.604760766601562,29.424117647058825
2025-10-20T14:30:54.464546,-26.412213740458014,1.6412213740458015,5.755725190839694,-0.21787235107421873,-1.6927005737304686,8.832209924316405,29.377058823529413
2025-10-20T14:30:54.481421,-23.53435114503817,1.083969465648855,5.916030534351145,-0.24899697265624998,-1.8555062866210936,8.825027319335938,29.377058823529413
2025-10-20T14:30:54.498299,-21.938931297709924,1.1068702290076335,6.374045801526718,-0.27293898925781246,-1.8602946899414061,9.0021982421875,29.330000000000002
2025-10-20T14:30:54.515159,-21.557251908396946,1.0458015267175573,6.580152671755725,-0.3112462158203125,-2.118868469238281,9.028534460449219,29.424117647058825
2025-10-20T14:30:54.532008,-20.977099236641223,1.3053435114503817,6.778625954198473,-0.21068974609375,-2.3127988037109373,9.131485131835937,29.471176470588237
2025-10-20T14:30:54.548856,-21.46564885496183,1.1755725190839694,7.198473282442748,-0.2154781494140625,-2.408566870117187,9.057264880371093,29.330000000000002
2025-10-20T14:30:54.565708,-18.358778625954198,1.16793893129771,7.603053435114504,-0.2825157958984375,-2.5450363647460934,9.04050546875,29.377058823529413
2025-10-20T14:30:54.582560,-17.38167938931298,1.3206106870229009,7.877862595419847,-0.3806780639648437,-2.4899697265625,8.894459167480468,29.471176470588237
2025-10-20T14:30:54.599403,-16.954198473282442,1.5038167938931297,8.114503816793894,-0.229843359375,-2.616862414550781,9.141061938476563,29.424117647058825
2025-10-20T14:30:54.616250,-17.045801526717558,1.5114503816793894,8.412213740458014,-0.25139117431640623,-2.6982652709960937,9.081206896972656,29.330000000000002
2025-10-20T14:30:54.633099,-16.366412213740457,1.5419847328244274,8.404580152671755,-0.21787235107421873,-2.7964275390625,8.961496813964843,29.377058823529413
2025-10-20T14:30:54.649946,-14.419847328244275,1.6717557251908397,7.977099236641221,-0.26336218261718747,-2.935291235351562,8.796296899414061,29.330000000000002
2025-10-20T14:30:54.666798,-11.435114503816793,1.6564885496183206,7.435114503816794,-0.27293898925781246,-2.9544448486328125,8.429984045410155,29.424117647058825
2025-10-20T14:30:54.683698,-8.267175572519085,1.7328244274809161,6.786259541984733,-0.239420166015625,-2.89219560546875,8.540117321777343,29.51823529411765
2025-10-20T14:30:54.700579,-6.015267175572519,1.549618320610687,6.267175572519084,-0.33758243408203126,-2.808398547363281,8.726865051269531,29.424117647058825
2025-10-20T14:30:54.717452,-4.3893129770992365,1.633587786259542,5.748091603053435,-0.5051765502929687,-2.7198130859375,8.8489693359375,29.377058823529413
2025-10-20T14:30:54.734302,-3.198473282442748,1.2290076335877862,5.267175572519084,-0.6368576416015624,-2.729389892578125,8.710105639648438,29.424117647058825
2025-10-20T14:30:54.751153,-1.549618320610687,0.7557251908396947,4.419847328244275,-0.8954314208984374,-3.0262708984374997,8.698134631347656,29.377058823529413
2025-10-20T14:30:54.768180,-0.37404580152671757,0.46564885496183206,3.519083969465649,-1.1252747802734375,-3.287238879394531,8.13310303955078,29.424117647058825
2025-10-20T14:30:54.785059,0.6030534351145038,0.21374045801526717,2.9618320610687023,-0.41419688720703124,-3.0645781249999997,8.43956085205078,29.424117647058825
2025-10-20T14:30:54.801933,1.0076335877862594,-0.5343511450381679,2.1755725190839694,-0.22505495605468748,-3.2920272827148436,8.765172277832031,29.377058823529413
2025-10-20T14:30:54.818816,-0.6030534351145038,0.3893129770992366,1.3282442748091603,-0.2154781494140625,-3.4644098022460934,8.904035974121093,29.424117647058825
2025-10-20T14:30:54.835852,-2.6793893129770994,-0.5343511450381679,-0.11450381679389313,-0.143652099609375,-3.1747114013671873,8.82263311767578,29.424117647058825
2025-10-20T14:30:54.852713,-3.687022900763359,-0.6030534351145038,-0.8549618320610687,-0.229843359375,-2.980781066894531,8.817844714355468,29.28294117647059
2025-10-20T14:30:54.869659,-3.8931297709923665,-0.8854961832061069,-1.282442748091603,-0.23223756103515625,-2.882618798828125,8.604760766601562,29.424117647058825
2025-10-20T14:30:54.886543,-4.549618320610687,-1.1145038167938932,-1.5801526717557253,-0.22026655273437498,-2.858676782226562,9.176974963378905,29.377058823529413
2025-10-20T14:30:54.904290,-6.6106870229007635,-1.2061068702290076,-1.3206106870229009,-0.2657563842773437,-2.913743420410156,9.239224206542968,29.377058823529413
2025-10-20T14:30:54.921168,-9.404580152671755,-0.22900763358778625,-0.9007633587786259,-0.11252747802734374,-2.9927520751953125,8.973467822265624,29.424117647058825
2025-10-20T14:30:54.938034,-12.67175572519084,0.33587786259541985,-0.7557251908396947,-0.10295067138671875,-3.2130186279296873,9.088389501953124,29.471176470588237
2025-10-20T14:30:54.954894,-14.763358778625955,0.42748091603053434,-0.6106870229007634,-0.11731588134765625,-3.1771056030273437,8.975862023925782,29.424117647058825
2025-10-20T14:30:54.971760,-15.01526717557252,0.8778625954198473,-0.6259541984732825,-0.02154781494140625,-3.095702746582031,8.911218579101561,29.330000000000002
2025-10-20T14:30:54.988614,-14.83969465648855,1.1068702290076335,-0.35877862595419846,-0.11013327636718749,-2.89219560546875,8.930372192382812,29.377058823529413
2025-10-20T14:30:55.005459,-15.977099236641221,1.3511450381679388,-0.13740458015267176,-0.3016694091796875,-2.81558115234375,8.963891015625,29.424117647058825
2025-10-20T14:30:55.022308,-17.328244274809162,2.2290076335877864,0.09923664122137404,-0.16519991455078123,-2.6527754394531247,8.74601866455078,29.424117647058825
2025-10-20T14:30:55.039156,-17.419847328244273,1.984732824427481,0.16793893129770993,-0.354341845703125,-2.7748797241210936,8.674192614746094,29.377058823529413
2025-10-20T14:30:55.056004,-16.068702290076335,1.7251908396946565,-0.015267175572519083,-0.4477157104492187,-3.0837317382812497,8.722076647949219,29.330000000000002
2025-10-20T14:30:55.072856,-12.82442748091603,0.6030534351145038,-0.6564885496183206,-0.4908113403320312,-3.0430303100585934,8.52335791015625,29.377058823529413
2025-10-20T14:30:55.089699,-9.419847328244275,-0.31297709923664124,-1.2366412213740459,-0.48123453369140623,-3.0262708984374997,8.389282617187499,29.471176470588237
2025-10-20T14:30:55.106544,-9.763358778625955,-0.9389312977099237,-1.6564885496183206,-0.5698199951171875,-2.91134921875,8.449137658691406,29.330000000000002
2025-10-20T14:30:55.123386,-6.809160305343512,-1.2595419847328244,-1.8015267175572518,-0.4955997436523437,-2.85388837890625,8.487444885253906,29.424117647058825
2025-10-20T14:30:55.140250,-4.9465648854961835,-1.465648854961832,-2.099236641221374,-0.5027823486328125,-2.8514941772460936,8.597578161621094,29.471176470588237
2025-10-20T14:30:55.157116,-2.4580152671755724,-1.8244274809160306,-2.618320610687023,-0.2657563842773437,-2.9185318237304685,8.643067993164061,29.424117647058825
2025-10-20T14:30:55.173991,-1.9541984732824427,-2.099236641221374,-2.969465648854962,-0.1867477294921875,-2.81558115234375,8.789114294433594,29.330000000000002
2025-10-20T14:30:55.190845,1.1908396946564885,-1.8091603053435115,-2.7480916030534353,-0.0718260498046875,-2.8275521606445313,8.793902697753905,29.377058823529413
2025-10-20T14:30:55.207697,1.4045801526717556,-1.4885496183206106,-2.8473282442748094,0.12210428466796874,-3.0406361083984375,8.700528833007812,29.330000000000002
2025-10-20T14:30:55.224548,1.7251908396946565,-0.7099236641221374,-2.480916030534351,0.062249243164062495,-3.1124621582031247,8.834604125976561,29.377058823529413
2025-10-20T14:30:55.241403,2.435114503816794,-0.7022900763358778,-2.236641221374046,0.023942016601562498,-3.1794998046874996,8.856151940917968,29.330000000000002
2025-10-20T14:30:55.258253,3.7786259541984735,-0.6564885496183206,-3.877862595419847,-0.00239420166015625,-3.246537451171875,8.865728747558594,29.424117647058825
2025-10-20T14:30:55.275112,4.0534351145038165,-0.8091603053435115,-1.213740458015267,-0.07422025146484375,-3.1866824096679687,8.86812294921875,29.471176470588237
2025-10-20T14:30:55.291971,3.549618320610687,-1.2595419847328244,-0.7862595419847328,-0.0526724365234375,-3.1411925781249996,9.03332286376953,29.424117647058825
2025-10-20T14:30:55.308820,2.351145038167939,-1.2748091603053435,0.1297709923664122,-0.055066638183593745,-3.294421484375,9.018957653808593,29.330000000000002
2025-10-20T14:30:55.325659,1.8244274809160306,-1.4732824427480915,0.7709923664122137,-0.016759411621093748,-3.356670727539062,8.987833032226561,29.377058823529413
2025-10-20T14:30:55.342506,1.7709923664122138,-1.5190839694656488,1.5572519083969465,-0.17956512451171874,-3.2920272827148436,8.817844714355468,29.424117647058825
2025-10-20T14:30:55.359376,2.1068702290076335,-1.6488549618320612,1.83206106870229,-0.36391865234375,-3.19865341796875,8.736441857910156,29.424117647058825
2025-10-20T14:30:55.376240,2.633587786259542,-1.2900763358778626,2.183206106870229,-0.46686932373046874,-2.9496564453125,8.750807067871094,29.377058823529413
2025-10-20T14:30:55.393090,2.6106870229007635,-0.7404580152671756,2.450381679389313,-0.4477157104492187,-2.932897033691406,8.75320126953125,29.424117647058825
2025-10-20T14:30:55.410141,2.404580152671756,-0.2595419847328244,2.6717557251908395,-0.3327940307617187,-3.0166940917968748,8.78432589111328,29.424117647058825
2025-10-20T14:30:55.429542,2.6259541984732824,-0.20610687022900764,2.572519083969466,-0.3495534423828125,-3.009511486816406,8.580818749999999,29.330000000000002
2025-10-20T14:30:55.446463,3.3435114503816794,-0.31297709923664124,2.435114503816794,-0.37828386230468747,-2.9735984619140625,8.645462194824217,29.377058823529413
2025-10-20T14:30:55.463343,3.427480916030534,-0.6717557251908397,2.1603053435114505,-0.3447650390625,-2.760514514160156,8.722076647949219,29.424117647058825
2025-10-20T14:30:55.480228,3.213740458015267,-0.6335877862595419,2.2061068702290076,-0.48123453369140623,-2.6862942626953124,8.580818749999999,29.377058823529413
2025-10-20T14:30:55.497072,2.900763358778626,-0.9312977099236641,2.0381679389312977,-0.5410895751953124,-2.7581203125,8.674192614746094,29.471176470588237
2025-10-20T14:30:55.513916,1.9618320610687023,-1.0534351145038168,3.8396946564885495,-0.5698199951171875,-2.463633508300781,8.877699755859375,29.330000000000002
2025-10-20T14:30:55.530758,0.549618320610687,-1.1068702290076335,2.0381679389312977,-0.4261678955078125,-2.422932080078125,8.863334545898438,29.424117647058825
2025-10-20T14:30:55.547599,-1.1450381679389312,-1.3435114503816794,2.1297709923664123,-0.30885201416015623,-2.4684219116210935,8.935160595703124,29.377058823529413
2025-10-20T14:30:55.564439,-3.4122137404580153,-1.2900763358778626,2.3282442748091605,-0.22505495605468748,-2.47081611328125,9.093177905273437,29.330000000000002
2025-10-20T14:30:55.581308,-5.763358778625954,-1.1374045801526718,2.2519083969465647,-0.3399766357421875,-2.5043349365234375,9.014169250488282,29.424117647058825
2025-10-20T14:30:55.598163,-8.16793893129771,-1.1145038167938932,2.1374045801526718,-0.16041151123046873,-2.568978381347656,9.066841687011719,29.377058823529413
2025-10-20T14:30:55.615064,-10.267175572519085,-0.8702290076335878,1.816793893129771,-0.39264907226562495,-2.549824768066406,9.196128576660156,29.330000000000002
2025-10-20T14:30:55.631933,-12.122137404580153,-0.48854961832061067,1.5725190839694656,-0.24899697265624998,-2.499546533203125,9.062053283691405,29.377058823529413
2025-10-20T14:30:55.648795,-13.816793893129772,-0.03816793893129771,1.4427480916030535,-0.229843359375,-2.549824768066406,9.093177905273437,29.330000000000002
2025-10-20T14:30:55.665653,-15.450381679389313,0.5038167938931297,1.0229007633587786,-0.023942016601562498,-2.6216508178710938,8.89924757080078,29.51823529411765
2025-10-20T14:30:55.682624,-16.587786259541986,1.1221374045801527,0.648854961832061,-0.2920926025390625,-2.741360900878906,8.74601866455078,29.424117647058825
2025-10-20T14:30:55.699500,-16.85496183206107,1.4427480916030535,0.21374045801526717,-0.3902548706054687,-2.839523168945312,8.9255837890625,29.377058823529413
2025-10-20T14:30:55.716356,-16.633587786259543,1.4351145038167938,-0.20610687022900764,-0.3327940307617187,-2.798821740722656,8.836998327636719,29.424117647058825
2025-10-20T14:30:55.733207,-16.267175572519083,1.4580152671755726,-0.5267175572519084,-0.3854664672851562,-2.9041666137695312,8.710105639648438,29.424117647058825
2025-10-20T14:30:55.750119,-15.114503816793894,1.3282442748091603,-0.732824427480916,-0.33758243408203126,-2.8945898071289062,8.700528833007812,29.377058823529413
2025-10-20T14:30:55.767002,-14.396946564885496,0.9847328244274809,-1.0381679389312977,-0.4836287353515625,-2.9951462768554684,8.664615808105468,29.424117647058825
2025-10-20T14:30:55.783876,-12.870229007633588,0.5725190839694656,-1.0687022900763359,-0.5410895751953124,-3.0645781249999997,8.597578161621094,29.377058823529413
2025-10-20T14:30:55.800732,-11.335877862595419,0.35877862595419846,-1.0229007633587786,-0.49799394531249996,-3.057395520019531,8.674192614746094,29.424117647058825
2025-10-20T14:30:55.817591,-9.67175572519084,-0.12213740458015267,-1.1297709923664123,-0.4860229370117187,-3.1100679565429687,8.722076647949219,29.424117647058825
2025-10-20T14:30:55.834448,-8.145038167938932,-0.16793893129770993,-1.083969465648855,-0.5458779785156249,-3.1076737548828124,8.609549169921875,29.377058823529413
2025-10-20T14:30:55.851304,-6.66412213740458,-0.22900763358778625,-1.2671755725190839,-0.5363011718749999,-3.1866824096679687,8.604760766601562,29.330000000000002
2025-10-20T14:30:55.868158,-5.541984732824427,-0.07633587786259542,-0.8244274809160306,-0.4477157104492187,-3.2321722412109373,8.640673791503906,29.330000000000002
2025-10-20T14:30:55.885025,-4.366412213740458,0.15267175572519084,-0.8320610687022901,-0.4213794921875,-3.2417490478515623,8.774749084472656,29.377058823529413
2025-10-20T14:30:55.901877,-3.2977099236641223,0.5038167938931297,-0.6641221374045801,-0.354341845703125,-3.337517114257812,8.722076647949219,29.330000000000002
2025-10-20T14:30:55.918735,-2.5419847328244276,0.6641221374045801,-0.3893129770992366,-0.430956298828125,-3.488351818847656,8.71489404296875,29.51823529411765
2025-10-20T14:30:55.935589,-1.717557251908397,0.9923664122137404,-1.9312977099236641,-0.38307226562499996,-3.5793314819335937,8.726865051269531,29.377058823529413
2025-10-20T14:30:55.952435,-0.3969465648854962,0.8396946564885496,0.35877862595419846,-0.30885201416015623,-3.5601778686523438,8.511386901855468,29.330000000000002
2025-10-20T14:30:55.969279,1.1526717557251909,0.9236641221374046,0.6641221374045801,-0.5530605834960938,-3.6391865234374996,8.47786807861328,29.424117647058825
2025-10-20T14:30:55.986137,2.4198473282442747,0.7557251908396947,0.8473282442748091,-0.40222587890625,-3.402160559082031,8.681375219726561,29.471176470588237
2025-10-20T14:30:56.003934,3.66412213740458,0.5343511450381679,1.083969465648855,-0.41419688720703124,-3.5889082885742187,8.590395556640624,29.377058823529413
2025-10-20T14:30:56.020821,4.854961832061068,0.022900763358778626,1.2442748091603053,-0.45010991210937495,-3.6104561035156246,8.540117321777343,29.424117647058825
2025-10-20T14:30:56.037677,6.603053435114504,-0.4122137404580153,1.465648854961832,-0.4908113403320312,-3.7325603881835936,8.449137658691406,29.377058823529413
2025-10-20T14:30:56.054527,9.236641221374045,-0.6183206106870229,1.4274809160305344,-0.4908113403320312,-3.574543078613281,8.384494213867187,29.330000000000002
2025-10-20T14:30:56.071375,11.083969465648854,-0.732824427480916,1.6641221374045803,-0.5602431884765625,-3.3638533325195312,8.51617530517578,29.330000000000002
2025-10-20T14:30:56.088231,11.580152671755725,-0.7709923664122137,1.9236641221374047,-0.39264907226562495,-3.1747114013671873,8.844180932617187,29.377058823529413
2025-10-20T14:30:56.105082,11.076335877862595,-0.4732824427480916,2.0916030534351147,-0.3854664672851562,-3.172317199707031,8.990227233886719,29.471176470588237
2025-10-20T14:30:56.121931,10.458015267175572,-0.4198473282442748,2.2748091603053435,-0.411802685546875,-3.1028853515624997,8.9255837890625,29.330000000000002
2025-10-20T14:30:56.138781,9.679389312977099,-0.4351145038167939,2.2977099236641223,-0.5099649536132812,-2.9831752685546875,8.865728747558594,29.330000000000002
2025-10-20T14:30:56.155630,8.366412213740459,-0.24427480916030533,2.435114503816794,-0.5339069702148437,-2.882618798828125,8.932766394042968,29.377058823529413
2025-10-20T14:30:56.172492,6.221374045801527,0.2824427480916031,2.5114503816793894,-0.4070142822265625,-2.8419173706054686,8.973467822265624,29.424117647058825
2025-10-20T14:30:56.189364,3.687022900763359,0.366412213740458,2.480916030534351,-0.38307226562499996,-2.868253588867187,9.143456140136719,29.377058823529413
2025-10-20T14:30:56.206215,0.4580152671755725,0.4351145038167939,2.7480916030534353,-0.3687070556640625,-3.028665100097656,9.0788126953125,29.471176470588237
2025-10-20T14:30:56.223068,-2.4656488549618323,0.7022900763358778,2.6030534351145036,-0.17477672119140625,-3.0430303100585934,9.279925634765624,29.424117647058825
2025-10-20T14:30:56.239921,-5.8396946564885495,0.6793893129770993,2.648854961832061,-0.36631285400390623,-3.1603461914062496,9.114725720214842,29.471176470588237
2025-10-20T14:30:56.256777,-8.305343511450381,0.6946564885496184,2.83206106870229,-0.3447650390625,-3.2441432495117186,9.011775048828124,29.377058823529413
2025-10-20T14:30:56.273625,-10.534351145038167,0.8320610687022901,2.6946564885496183,-0.3064578125,-3.210624426269531,9.016563452148437,29.424117647058825
2025-10-20T14:30:56.290486,-12.312977099236642,1.3511450381679388,2.816793893129771,-0.2346317626953125,-3.2704794677734372,8.954314208984375,29.471176470588237
2025-10-20T14:30:56.307354,-13.549618320610687,1.7099236641221374,2.8091603053435112,-0.15562310791015624,-3.303998291015625,8.927977990722656,29.377058823529413
2025-10-20T14:30:56.324217,-14.320610687022901,2.068702290076336,2.9618320610687023,-0.16519991455078123,-3.2824504760742186,8.82263311767578,29.424117647058825
2025-10-20T14:30:56.341074,-14.51908396946565,2.4122137404580153,2.854961832061069,-0.25139117431640623,-3.3207577026367185,8.662221606445312,29.424117647058825
2025-10-20T14:30:56.357926,-14.206106870229007,2.6717557251908395,2.7480916030534353,-0.33518823242187495,-3.3255461059570313,8.590395556640624,29.377058823529413
2025-10-20T14:30:56.374775,-13.229007633587786,2.7938931297709924,2.7022900763358777,-0.316034619140625,-3.4261025756835934,8.552088330078124,29.424117647058825
2025-10-20T14:30:56.391626,-11.98473282442748,3.0381679389312977,2.6030534351145036,-0.48123453369140623,-3.2321722412109373,8.530540515136718,29.471176470588237
2025-10-20T14:30:56.408475,-10.732824427480915,2.6259541984732824,2.648854961832061,-0.3854664672851562,-3.375824340820312,8.552088330078124,29.471176470588237
2025-10-20T14:30:56.425324,-8.916030534351146,2.366412213740458,2.4732824427480917,-0.584185205078125,-3.23696064453125,8.449137658691406,29.330000000000002
2025-10-20T14:30:56.442237,-6.961832061068702,1.8473282442748091,2.2595419847328246,-0.37828386230468747,-3.3351229125976563,8.44674345703125,29.377058823529413
2025-10-20T14:30:56.459246,-5.412213740458015,1.4809160305343512,2.145038167938931,-0.36631285400390623,-3.2058360229492187,8.492233288574218,29.330000000000002
2025-10-20T14:30:56.476128,-4.480916030534351,1.0,2.045801526717557,-0.3687070556640625,-3.1507693847656246,8.611943371582031,29.424117647058825
2025-10-20T14:30:56.492982,-5.816793893129771,0.7633587786259542,2.1374045801526718,-0.3232172241210937,-3.105279553222656,8.568847741699217,29.424117647058825
2025-10-20T14:30:56.509870,-3.5801526717557253,0.5343511450381679,1.8015267175572518,-0.3136404174804687,-3.208230224609375,8.580818749999999,29.377058823529413
2025-10-20T14:30:56.526827,-3.030534351145038,0.2595419847328244,1.6564885496183206,-0.22026655273437498,-3.2537200561523436,8.501810095214843,29.377058823529413
2025-10-20T14:30:56.543704,-2.3282442748091605,0.366412213740458,1.3206106870229009,-0.22266075439453123,-3.153163586425781,8.492233288574218,29.28294117647059
2025-10-20T14:30:56.560559,-2.427480916030534,0.26717557251908397,1.1374045801526718,-0.23702596435546874,-3.2034418212890623,8.56166513671875,29.330000000000002
2025-10-20T14:30:56.577410,-3.198473282442748,0.5801526717557252,0.7099236641221374,-0.24181436767578124,-3.1842882080078123,8.686163623046875,29.377058823529413
2025-10-20T14:30:56.594289,-4.015267175572519,0.6335877862595419,0.6259541984732825,-0.16998831787109375,-3.248931652832031,8.683769421386717,29.330000000000002
2025-10-20T14:30:56.611166,-4.9541984732824424,1.0534351145038168,0.42748091603053434,-0.1867477294921875,-3.191470812988281,8.815450512695312,29.424117647058825
2025-10-20T14:30:56.628012,-6.320610687022901,0.9236641221374046,0.31297709923664124,-0.316034619140625,-3.208230224609375,8.67658681640625,29.377058823529413
2025-10-20T14:30:56.644869,-7.221374045801527,0.9389312977099237,0.32061068702290074,-0.258573779296875,-3.191470812988281,8.525752111816406,29.330000000000002
2025-10-20T14:30:56.661725,-8.358778625954198,0.8702290076335878,-0.022900763358778626,-0.29448680419921874,-3.2154128295898436,8.640673791503906,29.424117647058825
2025-10-20T14:30:56.678583,-9.65648854961832,0.48854961832061067,-0.007633587786259542,-0.3399766357421875,-3.2225954345703123,8.681375219726561,29.377058823529413
2025-10-20T14:30:56.695438,-10.977099236641221,0.5038167938931297,-0.29770992366412213,-0.28730419921875,-3.268085266113281,8.487444885253906,29.330000000000002
2025-10-20T14:30:56.712289,-11.305343511450381,-0.25190839694656486,-0.7251908396946565,-0.39983167724609375,-3.2561142578125,8.492233288574218,29.424117647058825
2025-10-20T14:30:56.729142,-11.633587786259541,-0.3053435114503817,-0.9923664122137404,-0.44532150878906246,-3.31357509765625,8.437166650390624,29.28294117647059
2025-10-20T14:30:56.745997,-11.687022900763358,-0.48854961832061067,-1.1145038167938932,-0.36631285400390623,-3.3638533325195312,8.413224633789062,29.377058823529413
2025-10-20T14:30:56.762853,-12.335877862595419,-0.6106870229007634,-1.4885496183206106,-0.44053310546874996,-3.404554760742187,8.468291271972657,29.424117647058825
2025-10-20T14:30:56.779705,-12.641221374045802,-0.6335877862595419,-1.7251908396946565,-0.28730419921875,-3.5218706420898434,8.44674345703125,29.377058823529413
2025-10-20T14:30:56.796547,-12.625954198473282,-0.6793893129770993,-1.7786259541984732,-0.3232172241210937,-3.6104561035156246,8.403647827148436,29.377058823529413
2025-10-20T14:30:56.813399,-11.885496183206106,-0.549618320610687,-3.900763358778626,-0.430956298828125,-3.6248213134765623,8.279149340820313,29.330000000000002
2025-10-20T14:30:56.830253,-11.129770992366412,-0.5877862595419847,-2.1374045801526718,-0.5434837768554687,-3.706224169921875,8.29351455078125,29.424117647058825
2025-10-20T14:30:56.847143,-10.51908396946565,-0.48091603053435117,-2.1603053435114505,-0.3687070556640625,-3.842693664550781,8.329427575683594,29.377058823529413
2025-10-20T14:30:56.864020,-9.717557251908397,-0.6335877862595419,-2.3587786259541983,-0.39743747558593745,-3.852270471191406,8.451531860351562,29.424117647058825
2025-10-20T14:30:56.880866,-8.572519083969466,-0.6335877862595419,-2.3282442748091605,-0.47644613037109373,-4.031835595703125,8.341398583984375,29.330000000000002
2025-10-20T14:30:56.897723,-7.190839694656488,-0.9694656488549618,-2.1297709923664123,-0.4740519287109375,-3.9264907226562498,8.312668164062499,29.471176470588237
2025-10-20T14:30:56.914569,-5.694656488549619,-1.183206106870229,-2.1297709923664123,-0.5961562133789062,-3.912125512695312,8.40843623046875,29.424117647058825
2025-10-20T14:30:56.931425,-4.656488549618321,-1.297709923664122,-1.8015267175572518,-0.40462008056640625,-3.871424084472656,8.492233288574218,29.377058823529413
2025-10-20T14:30:56.948279,-4.175572519083969,-1.3053435114503817,-1.2671755725190839,-0.5051765502929687,-3.782838623046875,8.640673791503906,29.377058823529413
2025-10-20T14:30:56.965132,-4.221374045801527,-1.2748091603053435,-0.7404580152671756,-0.43574470214843747,-3.6822821533203123,8.602366564941406,29.330000000000002
2025-10-20T14:30:56.981982,-4.221374045801527,-1.0076335877862594,-0.3893129770992366,-0.4429273071289062,-3.9695863525390624,8.686163623046875,29.471176470588237
2025-10-20T14:30:56.998842,-4.305343511450381,-1.0381679389312977,-0.16793893129770993,-0.39983167724609375,-3.8474820678710935,8.645462194824217,29.471176470588237
2025-10-20T14:30:57.015705,-4.015267175572519,-0.8549618320610687,-0.022900763358778626,-0.45010991210937495,-3.83072265625,8.662221606445312,29.330000000000002
2025-10-20T14:30:57.032570,-3.8396946564885495,-0.648854961832061,-1.900763358778626,-0.469263525390625,-3.77326181640625,8.760383874511719,29.377058823529413
2025-10-20T14:30:57.049439,-4.198473282442748,-0.12213740458015267,0.07633587786259542,-0.4860229370117187,-3.763685009765625,8.78432589111328,29.377058823529413
2025-10-20T14:30:57.066292,-4.862595419847328,0.20610687022900764,-0.1450381679389313,-0.4525041137695312,-3.778050219726562,8.75320126953125,29.424117647058825
2025-10-20T14:30:57.083144,-5.343511450381679,0.7404580152671756,-0.03816793893129771,-0.5817910034179687,-3.7205893798828122,8.765172277832031,29.424117647058825
2025-10-20T14:30:57.100011,-6.015267175572519,1.0076335877862594,0.061068702290076333,-0.5722141967773438,-3.737348791503906,8.79150849609375,29.28294117647059
2025-10-20T14:30:57.116857,-6.465648854961832,1.1297709923664123,-0.11450381679389313,-0.6464344482421874,-3.7110125732421873,8.810662109374999,29.330000000000002
2025-10-20T14:30:57.133713,-6.809160305343512,1.3053435114503817,-0.31297709923664124,-0.7206546997070312,-3.718195178222656,8.67658681640625,29.377058823529413
2025-10-20T14:30:57.150568,-7.244274809160306,1.3282442748091603,-0.6030534351145038,-0.699106884765625,-3.5577836669921874,8.688557824707031,29.377058823529413
2025-10-20T14:30:57.167421,-7.969465648854962,1.2442748091603053,-0.648854961832061,-0.7661445312499999,-3.7038299682617186,8.659827404785156,29.330000000000002
2025-10-20T14:30:57.184278,-7.770992366412214,1.3435114503816794,-0.8396946564885496,-0.718260498046875,-3.7229835815429686,8.530540515136718,29.28294117647059
2025-10-20T14:30:57.201142,-7.33587786259542,1.450381679389313,-1.0916030534351144,-0.7876923461914062,-3.7708676147460936,8.482656481933594,29.424117647058825
2025-10-20T14:30:57.217997,-6.6183206106870225,1.2290076335877862,-1.4809160305343512,-0.7422025146484375,-3.8762124877929685,8.43956085205078,29.330000000000002
2025-10-20T14:30:57.234853,-5.969465648854962,0.8473282442748091,-1.7328244274809161,-0.6560112548828124,-3.8762124877929685,8.468291271972657,29.377058823529413
2025-10-20T14:30:57.251708,-4.809160305343512,1.3358778625954197,-1.6412213740458015,-0.6177040283203125,-3.9552211425781247,8.410830432128906,29.330000000000002
