timestamp,gyro_x,gyro_y,gyro_z,acc_x,acc_y,acc_z,temp
2025-10-15T19:33:53.994017,-0.5725190839694656,-6.396946564885496,-5.656488549618321,0.5410895751953124,-0.05985504150390625,9.524134204101562,28.341764705882355
2025-10-15T19:33:54.011057,1.213740458015267,-5.450381679389313,-6.66412213740458,0.6536170532226562,-0.28730419921875,9.452308154296874,28.435882352941178
2025-10-15T19:33:54.033455,3.198473282442748,-5.67175572519084,-7.0458015267175576,0.5315127685546874,-0.2154781494140625,9.282319836425781,28.435882352941178
2025-10-15T19:33:54.054595,4.885496183206107,-6.145038167938932,-7.526717557251908,0.5291185668945312,-0.29448680419921874,9.433154541015625,28.48294117647059
2025-10-15T19:33:54.071508,6.778625954198473,-3.954198473282443,-8.0,0.6200982299804687,-0.22505495605468748,9.550470422363281,28.341764705882355
2025-10-15T19:33:54.093468,7.893129770992366,-4.732824427480916,-8.34351145038168,0.5003881469726562,-0.1867477294921875,9.414000927734374,28.388823529411766
2025-10-15T19:33:54.115473,9.51908396946565,-4.679389312977099,-8.625954198473282,0.6871358764648438,-0.19871873779296872,9.349357482910156,28.341764705882355
2025-10-15T19:33:54.132455,10.114503816793894,-3.9618320610687023,-8.870229007633588,0.7110778930664062,-0.12210428466796874,9.485826977539062,28.435882352941178
2025-10-15T19:33:54.154471,10.877862595419847,-2.9770992366412212,-9.053435114503817,0.7493851196289062,-0.07422025146484375,9.370905297851563,28.435882352941178
2025-10-15T19:33:54.177315,11.15267175572519,-2.0839694656488548,-9.106870229007633,0.689530078125,-0.04548983154296875,9.605537060546874,28.294705882352943
2025-10-15T19:33:54.194226,10.732824427480915,-1.4427480916030535,-8.938931297709924,0.6727706665039062,0.0,9.524134204101562,28.435882352941178
2025-10-15T19:33:54.216697,10.48091603053435,-0.5343511450381679,-8.86259541984733,0.7517793212890624,0.10295067138671875,9.641450085449218,28.341764705882355
2025-10-15T19:33:54.239797,9.893129770992367,0.7404580152671756,-8.541984732824428,0.8116343627929687,0.19632453613281248,9.411606726074218,28.388823529411766
2025-10-15T19:33:54.256687,8.427480916030534,1.282442748091603,-8.274809160305344,0.8068459594726562,0.2657563842773437,9.397241516113281,28.341764705882355
2025-10-15T19:33:54.277940,7.259541984732825,2.0076335877862594,-7.8396946564885495,0.7829039428710937,0.258573779296875,9.483432775878907,28.435882352941178
2025-10-15T19:33:54.301272,5.557251908396947,3.2977099236641223,-7.488549618320611,0.8738836059570312,0.16519991455078123,9.552864624023437,28.388823529411766
2025-10-15T19:33:54.319050,5.8396946564885495,4.099236641221374,-7.114503816793893,0.8690952026367187,0.2154781494140625,9.380482104492186,28.388823529411766
2025-10-15T19:33:54.339364,2.435114503816794,4.763358778625954,-6.656488549618321,0.7805097412109374,0.12210428466796874,9.289502441406249,28.48294117647059
2025-10-15T19:33:54.362029,0.6106870229007634,3.9160305343511452,-6.244274809160306,0.6177040283203125,0.181959326171875,9.253589416503905,28.388823529411766
2025-10-15T19:33:54.379773,-1.183206106870229,6.534351145038168,-5.656488549618321,0.6823474731445313,0.17956512451171874,9.2320416015625,28.341764705882355
2025-10-15T19:33:54.399751,-2.4732824427480917,6.557251908396947,-5.541984732824427,0.8116343627929687,0.0909796630859375,9.203311181640624,28.435882352941178
2025-10-15T19:33:54.422306,-3.66412213740458,7.32824427480916,-4.687022900763359,0.6440402465820312,0.09337386474609374,9.476250170898437,28.388823529411766
2025-10-15T19:33:54.440905,-5.229007633587786,7.732824427480916,-4.6183206106870225,0.718260498046875,0.19632453613281248,9.217676391601563,28.341764705882355
2025-10-15T19:33:54.460169,-6.175572519083969,7.99236641221374,-5.687022900763359,0.7589619262695312,0.277727392578125,9.212887988281249,28.435882352941178
2025-10-15T19:33:54.482614,-6.984732824427481,8.17557251908397,-3.9236641221374047,0.21787235107421873,0.2059013427734375,9.184157568359375,28.48294117647059
2025-10-15T19:33:54.502029,-8.213740458015268,7.977099236641221,-3.3740458015267176,0.9002198242187499,-0.055066638183593745,9.057264880371093,28.294705882352943
2025-10-15T19:33:54.520531,-8.282442748091603,7.183206106870229,-3.33587786259542,0.6296750366210937,0.143652099609375,9.315838659667968,28.341764705882355
2025-10-15T19:33:54.542530,-9.213740458015268,6.778625954198473,-3.1297709923664123,0.469263525390625,-0.0047884033203125,9.093177905273437,28.388823529411766
2025-10-15T19:33:54.562407,-8.954198473282442,5.351145038167939,-2.8931297709923665,0.4860229370117187,-0.08858546142578125,9.081206896972656,28.435882352941178
2025-10-15T19:33:54.580210,-11.549618320610687,4.526717557251908,-3.0610687022900764,0.28730419921875,-0.047884033203124995,9.014169250488282,28.435882352941178
2025-10-15T19:33:54.602146,-9.427480916030534,3.2519083969465647,-2.7404580152671754,0.33039982910156246,0.1484405029296875,9.126696728515624,28.388823529411766
2025-10-15T19:33:54.622462,-10.404580152671755,1.8931297709923665,-3.2290076335877864,0.40222587890625,0.13407529296874998,8.980650427246093,28.435882352941178
2025-10-15T19:33:54.639852,-9.961832061068701,-0.5114503816793893,-2.931297709923664,0.16759411621093748,0.009576806640625,9.131485131835937,28.388823529411766
2025-10-15T19:33:54.661951,-9.427480916030534,-1.0687022900763359,-3.2519083969465647,0.36631285400390623,-0.10295067138671875,9.239224206542968,28.435882352941178
2025-10-15T19:33:54.683110,-8.931297709923664,-1.3893129770992367,-3.1526717557251906,0.44532150878906246,-0.040701428222656245,9.102754711914063,28.388823529411766
2025-10-15T19:33:54.700021,-8.183206106870228,-2.816793893129771,-3.4580152671755724,0.38307226562499996,-0.0383072265625,9.167398156738281,28.341764705882355
2025-10-15T19:33:54.722017,-9.687022900763358,-4.137404580152672,-3.885496183206107,0.32082302246093747,-0.01915361328125,9.229647399902344,28.341764705882355
2025-10-15T19:33:54.744027,-6.4961832061068705,-4.0534351145038165,-4.190839694656488,0.5889736083984375,-0.009576806640625,9.246406811523437,28.435882352941178
2025-10-15T19:33:54.760944,-7.793893129770993,-4.99236641221374,-4.763358778625954,0.4477157104492187,-0.06943184814453125,9.090783703613281,28.388823529411766
2025-10-15T19:33:54.783005,-5.236641221374046,-6.343511450381679,-5.0534351145038165,0.39264907226562495,-0.0718260498046875,9.22485899658203,28.341764705882355
2025-10-15T19:33:54.805868,-4.061068702290076,-6.175572519083969,-5.305343511450381,0.5482721801757812,-0.0718260498046875,9.296685046386719,28.388823529411766
2025-10-15T19:33:54.822763,-3.045801526717557,-6.1603053435114505,-5.717557251908397,0.5770026000976562,-0.08379705810546874,9.334992272949219,28.435882352941178
2025-10-15T19:33:54.844795,-2.5114503816793894,-6.961832061068702,-5.770992366412214,0.5147533569335937,-0.08858546142578125,9.358934289550781,28.435882352941178
2025-10-15T19:33:54.867876,-3.7709923664122136,-7.1679389312977095,-6.312977099236641,0.5434837768554687,-0.13407529296874998,9.552864624023437,28.48294117647059
2025-10-15T19:33:54.884750,-1.0534351145038168,-6.312977099236641,-6.488549618320611,0.6416460449218749,-0.06943184814453125,9.411606726074218,28.435882352941178
2025-10-15T19:33:54.906120,-0.6335877862595419,-6.824427480916031,-6.67175572519084,0.5889736083984375,0.05027823486328125,9.406818322753905,28.48294117647059
2025-10-15T19:33:54.929079,-0.12213740458015267,-6.885496183206107,-7.015267175572519,0.6560112548828124,-0.06464344482421874,9.3852705078125,28.48294117647059
2025-10-15T19:33:54.945959,0.7251908396946565,-5.679389312977099,-6.7251908396946565,0.6392518432617187,-0.033518823242187495,9.593566052246093,28.48294117647059
2025-10-15T19:33:54.968356,1.1755725190839694,-5.427480916030534,-6.893129770992366,0.612915625,-0.023942016601562498,9.689334118652344,28.48294117647059
2025-10-15T19:33:54.991660,1.251908396946565,-4.862595419847328,-6.793893129770993,0.8403647827148437,-0.055066638183593745,9.6917283203125,28.341764705882355
2025-10-15T19:33:55.009051,1.4198473282442747,-3.2595419847328246,-6.778625954198473,0.8738836059570312,-0.047884033203124995,9.919177478027343,28.388823529411766
2025-10-15T19:33:55.029722,1.7404580152671756,-1.8091603053435115,-6.572519083969466,0.6440402465820312,-0.2346317626953125,9.545682019042967,28.341764705882355
2025-10-15T19:33:55.052671,1.0916030534351144,-2.2213740458015265,-6.183206106870229,0.7038952880859375,0.13407529296874998,9.370905297851563,28.48294117647059
2025-10-15T19:33:55.070440,1.2900763358778626,-0.5725190839694656,-6.404580152671755,0.7517793212890624,0.01915361328125,9.79946739501953,28.388823529411766
2025-10-15T19:33:55.090832,0.916030534351145,1.282442748091603,-6.2748091603053435,0.7445967163085937,0.08379705810546874,9.540893615722656,28.388823529411766
2025-10-15T19:33:55.113659,0.9618320610687023,1.4580152671755726,-5.984732824427481,0.8307879760742187,0.047884033203124995,9.572018237304688,28.53
2025-10-15T19:33:55.131922,0.05343511450381679,2.267175572519084,-5.809160305343512,0.7278373046875,0.09337386474609374,9.536105212402344,28.341764705882355
2025-10-15T19:33:55.151677,0.15267175572519084,4.1603053435114505,-5.396946564885496,0.6871358764648438,-0.13646949462890623,9.519345800781249,28.435882352941178
2025-10-15T19:33:55.174778,-0.015267175572519083,4.717557251908397,-5.396946564885496,0.6823474731445313,0.0143652099609375,9.212887988281249,28.388823529411766
2025-10-15T19:33:55.194122,-0.04580152671755725,4.763358778625954,-5.244274809160306,0.7661445312499999,-0.031124621582031248,9.411606726074218,28.388823529411766
2025-10-15T19:33:55.213216,-0.1450381679389313,6.152671755725191,-4.99236641221374,0.7445967163085937,0.02154781494140625,9.315838659667968,28.435882352941178
2025-10-15T19:33:55.236776,1.8549618320610688,6.885496183206107,-4.908396946564886,0.6727706665039062,-0.0526724365234375,9.131485131835937,28.388823529411766
2025-10-15T19:33:55.255898,-0.11450381679389313,6.740458015267175,-4.641221374045801,0.6775590698242188,-0.033518823242187495,9.045293872070312,28.341764705882355
2025-10-15T19:33:55.274739,0.35877862595419846,7.145038167938932,-4.587786259541985,0.6584054565429687,0.0047884033203125,9.351751684570312,28.435882352941178
2025-10-15T19:33:55.297612,0.7251908396946565,7.885496183206107,-4.847328244274809,0.5434837768554687,-0.05985504150390625,9.100360510253905,28.388823529411766
2025-10-15T19:33:55.317657,1.0076335877862594,7.3816793893129775,-4.587786259541985,0.5386953735351562,-0.07422025146484375,9.088389501953124,28.341764705882355
2025-10-15T19:33:55.335583,1.4809160305343512,7.297709923664122,-4.755725190839694,0.5410895751953124,-0.10295067138671875,9.057264880371093,28.388823529411766
2025-10-15T19:33:55.357829,1.282442748091603,6.66412213740458,-4.854961832061068,0.737414111328125,0.14125789794921875,9.222464794921875,28.294705882352943
2025-10-15T19:33:55.378309,1.3893129770992367,6.137404580152672,-5.0534351145038165,0.4836287353515625,0.143652099609375,8.923189587402343,28.48294117647059
2025-10-15T19:33:55.396302,0.8320610687022901,5.244274809160306,-5.198473282442748,0.7398083129882812,-0.19632453613281248,9.05965908203125,28.388823529411766
2025-10-15T19:33:55.418971,1.4274809160305344,4.687022900763359,-5.152671755725191,0.3591302490234375,0.06464344482421874,8.760383874511719,28.435882352941178
2025-10-15T19:33:55.439418,1.0229007633587786,3.618320610687023,-5.488549618320611,0.2609679809570312,-0.181959326171875,8.997409838867187,28.435882352941178
2025-10-15T19:33:55.456909,0.9007633587786259,1.5801526717557253,-5.786259541984733,0.5195417602539062,0.0430956298828125,9.167398156738281,28.341764705882355
2025-10-15T19:33:55.479459,0.4351145038167939,0.7633587786259542,-5.938931297709924,0.5315127685546874,0.033518823242187495,9.210493786621093,28.341764705882355
2025-10-15T19:33:55.500903,-0.22900763358778625,-0.1984732824427481,-6.091603053435114,0.3447650390625,0.17238251953125,9.150638745117186,28.435882352941178
2025-10-15T19:33:55.517853,-1.4045801526717556,-1.8625954198473282,-6.00763358778626,0.33518823242187495,0.12449848632812499,9.191340173339842,28.388823529411766
2025-10-15T19:33:55.540138,-2.4656488549618323,-2.648854961832061,-5.694656488549619,0.5147533569335937,0.19393033447265623,9.471461767578125,28.53
2025-10-15T19:33:55.562158,-3.854961832061069,-2.816793893129771,-5.877862595419847,0.5506663818359374,0.1580173095703125,9.270348828125,28.435882352941178
2025-10-15T19:33:55.579078,-4.748091603053435,-3.9236641221374047,-5.748091603053435,0.5099649536132812,0.1292868896484375,9.22485899658203,28.48294117647059
2025-10-15T19:33:55.601113,-5.8320610687022905,-4.923664122137405,-5.625954198473282,0.6584054565429687,0.2154781494140625,9.478644372558593,28.435882352941178
2025-10-15T19:33:55.624013,-6.8396946564885495,-4.709923664122138,-5.038167938931298,0.4644751220703125,0.40462008056640625,9.624690673828125,28.48294117647059
2025-10-15T19:33:55.640896,-7.732824427480916,-5.198473282442748,-5.076335877862595,0.6296750366210937,0.15083470458984374,9.445125549316407,28.435882352941178
2025-10-15T19:33:55.662913,-8.694656488549619,-5.702290076335878,-4.847328244274809,0.30406361083984373,0.0430956298828125,9.466673364257812,28.435882352941178
2025-10-15T19:33:55.686322,-8.946564885496183,-5.66412213740458,-4.511450381679389,0.7637503295898437,0.27293898925781246,9.660603698730467,28.435882352941178
2025-10-15T19:33:55.703197,-9.374045801526718,-5.236641221374046,-4.5038167938931295,0.59376201171875,0.07422025146484375,9.651026892089844,28.341764705882355
2025-10-15T19:33:55.724143,-9.687022900763358,-5.145038167938932,-4.374045801526718,0.4644751220703125,-0.1005564697265625,9.516951599121093,28.435882352941178
2025-10-15T19:33:55.747349,-9.80916030534351,-4.824427480916031,-4.229007633587786,0.5913678100585937,0.031124621582031248,9.718064538574218,28.435882352941178
2025-10-15T19:33:55.764672,-9.259541984732824,-4.030534351145038,-4.183206106870229,0.7565677246093749,-0.016759411621093748,9.540893615722656,28.341764705882355
2025-10-15T19:33:55.784933,-8.98473282442748,-3.7404580152671754,-4.358778625954199,0.9097966308593749,0.15083470458984374,9.526528405761718,28.435882352941178
2025-10-15T19:33:55.807858,-8.32824427480916,-3.145038167938931,-4.458015267175573,0.6703764648437499,-0.2154781494140625,9.557653027343749,28.435882352941178
2025-10-15T19:33:55.826035,-7.595419847328245,-2.213740458015267,-4.358778625954199,0.6272808349609375,-0.05746083984375,9.552864624023437,28.294705882352943
2025-10-15T19:33:55.845477,-6.3816793893129775,-1.6259541984732824,-4.679389312977099,0.6871358764648438,-0.12449848632812499,9.598354455566406,28.435882352941178
2025-10-15T19:33:55.868099,-5.67175572519084,-1.0,-4.740458015267175,0.6631938598632812,-0.18435352783203124,9.519345800781249,28.388823529411766
2025-10-15T19:33:55.887115,-4.648854961832061,-0.32061068702290074,-4.770992366412214,0.6416460449218749,-0.30406361083984373,9.418789331054686,28.388823529411766
2025-10-15T19:33:55.905934,-3.6030534351145036,0.42748091603053434,-5.343511450381679,0.6943184814453125,-0.13646949462890623,9.291896643066405,28.435882352941178
2025-10-15T19:33:55.928356,-2.4580152671755724,0.8854961832061069,-5.580152671755725,0.6679822631835937,-0.3064578125,9.303867651367186,28.48294117647059
2025-10-15T19:33:55.948238,-1.1603053435114503,1.1221374045801527,-5.793893129770993,0.6512228515624999,-0.143652099609375,9.258377819824219,28.435882352941178
2025-10-15T19:33:55.966047,-0.07633587786259542,1.6106870229007633,-6.213740458015267,0.6751648681640625,-0.2346317626953125,8.975862023925782,28.48294117647059
2025-10-15T19:33:55.988682,1.3206106870229009,2.2442748091603053,-6.480916030534351,0.47884033203125,-0.20829554443359374,9.076418493652342,28.341764705882355
2025-10-15T19:33:56.008657,2.854961832061069,2.3053435114503817,-6.625954198473282,0.6272808349609375,-0.17477672119140625,9.299079248046874,28.53
2025-10-15T19:33:56.028360,4.061068702290076,2.4656488549618323,-6.908396946564886,0.603338818359375,-0.1867477294921875,9.112331518554686,28.388823529411766
2025-10-15T19:33:56.051036,5.221374045801527,2.9389312977099236,-7.030534351145038,0.6512228515624999,-0.06703764648437499,9.069235888671875,28.388823529411766
2025-10-15T19:33:56.069820,6.702290076335878,3.3969465648854964,-7.297709923664122,0.5386953735351562,-0.10773907470703124,9.150638745117186,28.294705882352943
2025-10-15T19:33:56.089036,7.251908396946565,3.4580152671755724,-7.396946564885496,0.6584054565429687,-0.06943184814453125,9.212887988281249,28.341764705882355
2025-10-15T19:33:56.111393,7.961832061068702,4.076335877862595,-7.374045801526718,0.5602431884765625,-0.15322890625,9.1554271484375,28.341764705882355
2025-10-15T19:33:56.130763,8.473282442748092,3.8931297709923665,-7.450381679389313,0.5506663818359374,-0.0047884033203125,9.313444458007812,28.48294117647059
2025-10-15T19:33:56.148741,8.488549618320612,5.8396946564885495,-7.251908396946565,0.7134720947265625,0.0718260498046875,9.234435803222656,28.435882352941178
2025-10-15T19:33:56.170892,8.16793893129771,4.068702290076335,-7.244274809160306,0.5315127685546874,-0.0718260498046875,9.244012609863281,28.435882352941178
2025-10-15T19:33:56.191121,7.282442748091603,3.595419847328244,-7.061068702290076,0.5578489868164063,0.1484405029296875,9.258377819824219,28.341764705882355
2025-10-15T19:33:56.211296,6.67175572519084,3.549618320610687,-6.877862595419847,0.6153098266601562,0.047884033203124995,9.526528405761718,28.388823529411766
2025-10-15T19:33:56.233948,5.3893129770992365,3.4580152671755724,-6.557251908396947,0.565031591796875,0.2920926025390625,9.222464794921875,28.48294117647059
2025-10-15T19:33:56.252902,4.0,3.030534351145038,-6.4961832061068705,0.5698199951171875,0.1867477294921875,9.337386474609374,28.341764705882355
2025-10-15T19:33:56.271301,2.564885496183206,2.3740458015267176,-6.129770992366412,0.51714755859375,0.201112939453125,9.227253198242186,28.48294117647059
2025-10-15T19:33:56.293669,0.5572519083969466,1.8778625954198473,-5.587786259541985,0.5363011718749999,0.011971008300781249,9.409212524414063,28.341764705882355
2025-10-15T19:33:56.313922,-1.183206106870229,1.3893129770992367,-5.587786259541985,0.6105214233398437,0.24181436767578124,9.495403784179686,28.388823529411766
2025-10-15T19:33:56.331107,-3.1755725190839694,1.1145038167938932,-5.099236641221374,0.3758896606445312,0.29927520751953124,9.291896643066405,28.341764705882355
2025-10-15T19:33:56.353200,-4.824427480916031,0.37404580152671757,-4.854961832061068,0.10773907470703124,0.18435352783203124,9.133879333496093,28.388823529411766
2025-10-15T19:33:56.374302,-7.236641221374046,-1.8015267175572518,-4.587786259541985,0.44053310546874996,0.08379705810546874,9.366116894531249,28.388823529411766
2025-10-15T19:33:56.391129,-8.83969465648855,-0.9007633587786259,-5.770992366412214,0.9121908325195311,0.1771709228515625,9.373299499511718,28.624117647058824
2025-10-15T19:33:56.413344,-10.290076335877863,-0.46564885496183206,-3.786259541984733,0.6105214233398437,0.34237083740234375,9.763554370117188,28.341764705882355
2025-10-15T19:33:56.435341,-12.86259541984733,-0.7786259541984732,-3.2595419847328246,0.6512228515624999,-0.1197100830078125,9.543287817382812,28.435882352941178
2025-10-15T19:33:56.452183,-13.290076335877863,-0.8549618320610687,-3.1603053435114505,0.603338818359375,0.181959326171875,9.507374792480467,28.388823529411766
2025-10-15T19:33:56.474238,-13.748091603053435,-0.9694656488549618,-2.900763358778626,0.622492431640625,0.0047884033203125,9.600748657226562,28.388823529411766
2025-10-15T19:33:56.497067,-13.610687022900763,-1.4961832061068703,-3.145038167938931,0.6488286499023437,0.076614453125,9.459490759277344,28.341764705882355
2025-10-15T19:33:56.513884,-12.80916030534351,-1.2595419847328244,-3.099236641221374,0.5746083984375,-0.17238251953125,9.464279162597656,28.53
2025-10-15T19:33:56.535678,-11.48091603053435,-1.5648854961832062,-3.595419847328244,0.4740519287109375,0.0,9.41639512939453,28.48294117647059
2025-10-15T19:33:56.558549,-10.358778625954198,-1.3587786259541985,-3.7404580152671754,0.7613561279296874,-0.4525041137695312,9.600748657226562,28.435882352941178
2025-10-15T19:33:56.575347,-8.091603053435115,-1.0916030534351144,-1.984732824427481,0.5674257934570313,-0.033518823242187495,9.452308154296874,28.435882352941178
2025-10-15T19:33:56.595860,-6.572519083969466,-1.0458015267175573,-4.221374045801527,0.7206546997070312,-0.2059013427734375,9.3852705078125,28.435882352941178
2025-10-15T19:33:56.618680,-5.00763358778626,-1.2290076335877862,-4.366412213740458,0.7350199096679687,-0.3184288208007812,9.404424121093749,28.388823529411766
2025-10-15T19:33:56.636308,-2.877862595419847,-0.8396946564885496,-5.038167938931298,0.584185205078125,-0.08858546142578125,9.481038574218749,28.341764705882355
2025-10-15T19:33:56.655847,-0.4732824427480916,-0.7251908396946565,-5.00763358778626,0.7038952880859375,-0.28012159423828126,9.337386474609374,28.435882352941178
2025-10-15T19:33:56.678057,0.7404580152671756,-0.37404580152671757,-5.893129770992366,0.40222587890625,-0.296881005859375,9.145850341796875,28.435882352941178
2025-10-15T19:33:56.696537,2.9770992366412212,-0.549618320610687,-6.1679389312977095,0.5195417602539062,-0.18914193115234373,9.212887988281249,28.341764705882355
2025-10-15T19:33:56.715246,4.656488549618321,-0.3893129770992366,-6.549618320610687,0.6727706665039062,-0.023942016601562498,9.239224206542968,28.48294117647059
2025-10-15T19:33:56.737254,5.793893129770993,0.15267175572519084,-7.290076335877862,0.488417138671875,-0.15083470458984374,9.327809667968749,28.294705882352943
2025-10-15T19:33:56.756155,6.221374045801527,0.2900763358778626,-7.091603053435114,0.39743747558593745,0.12689268798828124,9.279925634765624,28.435882352941178
2025-10-15T19:33:56.774471,6.66412213740458,0.3969465648854962,-7.419847328244275,0.5817910034179687,-0.062249243164062495,9.227253198242186,28.388823529411766
2025-10-15T19:33:56.796578,6.358778625954199,0.549618320610687,-7.458015267175573,0.6703764648437499,0.12210428466796874,9.102754711914063,28.435882352941178
2025-10-15T19:33:56.816752,6.183206106870229,0.7480916030534351,-7.67175572519084,0.565031591796875,-0.12449848632812499,9.04050546875,28.388823529411766
2025-10-15T19:33:56.833821,5.251908396946565,0.5343511450381679,-7.709923664122138,0.5865794067382812,0.08379705810546874,9.14824454345703,28.341764705882355
2025-10-15T19:33:56.855561,4.908396946564886,1.1221374045801527,-5.870229007633588,0.5626373901367188,0.086191259765625,9.215282189941405,28.53
2025-10-15T19:33:56.876992,3.763358778625954,0.8549618320610687,-7.625954198473282,0.5195417602539062,0.23702596435546874,9.282319836425781,28.388823529411766
2025-10-15T19:33:56.893776,2.4198473282442747,0.9847328244274809,-7.458015267175573,0.4955997436523437,0.1197100830078125,9.188945971679686,28.388823529411766
2025-10-15T19:33:56.915534,1.0610687022900764,0.8091603053435115,-7.290076335877862,0.7110778930664062,0.20829554443359374,9.205705383300781,28.388823529411766
2025-10-15T19:33:56.937832,0.05343511450381679,0.5954198473282443,-7.3816793893129775,0.8259995727539062,0.17477672119140625,9.354145886230468,28.341764705882355
2025-10-15T19:33:56.954635,-1.8778625954198473,0.45038167938931295,-6.694656488549619,0.5530605834960938,0.1197100830078125,9.145850341796875,28.341764705882355
2025-10-15T19:33:56.976555,-3.763358778625954,0.7709923664122137,-6.419847328244275,0.6105214233398437,0.239420166015625,9.198522778320312,28.388823529411766
2025-10-15T19:33:56.999791,-5.442748091603053,0.5114503816793893,-5.732824427480916,0.48123453369140623,0.2609679809570312,9.509768994140625,28.388823529411766
2025-10-15T19:33:57.016579,-6.824427480916031,0.4961832061068702,-5.564885496183206,0.6919242797851562,0.13646949462890623,9.133879333496093,28.294705882352943
2025-10-15T19:33:57.037108,-7.526717557251908,0.4580152671755725,-5.229007633587786,0.4908113403320312,0.011971008300781249,9.129090930175781,28.48294117647059
2025-10-15T19:33:57.059635,-7.900763358778626,0.3511450381679389,-4.931297709923665,0.6775590698242188,-0.02154781494140625,9.265560424804686,28.435882352941178
2025-10-15T19:33:57.076860,-8.679389312977099,0.7404580152671756,-4.305343511450381,0.699106884765625,-0.0430956298828125,9.124302526855468,28.388823529411766
2025-10-15T19:33:57.096870,-8.633587786259541,0.6564885496183206,-4.595419847328245,0.4261678955078125,-0.076614453125,9.150638745117186,28.388823529411766
2025-10-15T19:33:57.119216,-8.221374045801527,0.366412213740458,-4.251908396946565,0.4740519287109375,-0.15083470458984374,9.284714038085937,28.435882352941178
2025-10-15T19:33:57.137292,-7.511450381679389,0.732824427480916,-4.633587786259542,0.5315127685546874,-0.16519991455078123,9.239224206542968,28.53
2025-10-15T19:33:57.156475,-6.572519083969466,0.6564885496183206,-4.450381679389313,0.6248866333007812,-0.09576806640624999,9.325415466308593,28.435882352941178
2025-10-15T19:33:57.178638,-5.580152671755725,-1.8244274809160306,-4.480916030534351,0.6009446166992187,-0.2657563842773437,9.270348828125,28.388823529411766
2025-10-15T19:33:57.197545,-4.526717557251908,0.22900763358778625,-4.67175572519084,0.6272808349609375,-0.11252747802734374,9.255983618164063,28.435882352941178
2025-10-15T19:33:57.216430,-3.6717557251908395,0.22900763358778625,-4.587786259541985,0.565031591796875,-0.14604630126953125,9.334992272949219,28.388823529411766
2025-10-15T19:33:57.238305,-2.595419847328244,-0.3282442748091603,-4.32824427480916,0.4572925170898437,-0.20829554443359374,9.406818322753905,28.53
2025-10-15T19:33:57.258911,-1.7633587786259541,-0.366412213740458,-4.404580152671755,0.5434837768554687,-0.10773907470703124,9.588777648925781,28.388823529411766
2025-10-15T19:33:57.275787,-0.8473282442748091,-0.26717557251908397,-4.862595419847328,0.5913678100585937,-0.13168109130859373,9.481038574218749,28.435882352941178
2025-10-15T19:33:57.297572,0.183206106870229,-0.816793893129771,-4.885496183206107,0.36391865234375,-0.02154781494140625,9.519345800781249,28.388823529411766
2025-10-15T19:33:57.319031,-1.8396946564885497,-1.1068702290076335,-4.809160305343512,0.6081272216796875,-0.08140285644531249,9.53131680908203,28.435882352941178
2025-10-15T19:33:57.335867,1.16793893129771,-1.3435114503816794,-4.908396946564886,0.7541735229492187,-0.07422025146484375,9.526528405761718,28.388823529411766
2025-10-15T19:33:57.357678,1.6030534351145038,-1.0534351145038168,-5.1603053435114505,0.469263525390625,-0.09576806640624999,9.550470422363281,28.388823529411766
2025-10-15T19:33:57.379978,2.2748091603053435,-0.8625954198473282,-4.977099236641221,0.5482721801757812,-0.02154781494140625,9.504980590820312,28.435882352941178
2025-10-15T19:33:57.396805,2.4656488549618323,-0.916030534351145,-5.122137404580153,0.5506663818359374,-0.12449848632812499,9.483432775878907,28.435882352941178
2025-10-15T19:33:57.418940,2.7480916030534353,-0.46564885496183206,-4.984732824427481,0.6272808349609375,0.11731588134765625,9.660603698730467,28.435882352941178
2025-10-15T19:33:57.442114,2.2900763358778624,-0.2824427480916031,-5.00763358778626,0.7422025146484375,0.05746083984375,9.782707983398437,28.48294117647059
2025-10-15T19:33:57.458947,2.1908396946564888,-0.26717557251908397,-5.267175572519084,0.5267243652343749,0.02633621826171875,9.452308154296874,28.388823529411766
2025-10-15T19:33:57.480384,1.7786259541984732,0.6870229007633588,-5.366412213740458,0.5410895751953124,0.00718260498046875,9.370905297851563,28.388823529411766
2025-10-15T19:33:57.503271,1.6106870229007633,0.7022900763358778,-5.3893129770992365,0.6584054565429687,0.06943184814453125,9.404424121093749,28.388823529411766
2025-10-15T19:33:57.520102,1.0076335877862594,0.8091603053435115,-5.488549618320611,0.5602431884765625,0.22505495605468748,9.375693701171874,28.388823529411766
2025-10-15T19:33:57.540737,0.6106870229007634,1.549618320610687,-5.2748091603053435,0.6775590698242188,0.2346317626953125,9.418789331054686,28.341764705882355
2025-10-15T19:33:57.563428,-0.061068702290076333,1.8473282442748091,-5.717557251908397,0.7158662963867187,0.19153613281249998,9.363722692871093,28.341764705882355
2025-10-15T19:33:57.580688,-1.1603053435114503,1.8015267175572518,-5.786259541984733,0.6823474731445313,0.06943184814453125,9.258377819824219,28.48294117647059
2025-10-15T19:33:57.600925,-1.6106870229007633,2.2213740458015265,-5.801526717557252,0.5913678100585937,0.12210428466796874,9.260772021484375,28.577058823529413
2025-10-15T19:33:57.623846,-2.435114503816794,2.7404580152671754,-7.679389312977099,0.5506663818359374,0.06464344482421874,9.22485899658203,28.48294117647059
2025-10-15T19:33:57.641997,-3.053435114503817,2.6793893129770994,-5.977099236641221,0.6440402465820312,-0.00239420166015625,9.334992272949219,28.341764705882355
2025-10-15T19:33:57.661343,-3.6793893129770994,2.9160305343511452,-5.740458015267175,0.718260498046875,0.19153613281249998,9.203311181640624,28.53
2025-10-15T19:33:57.683667,-4.32824427480916,1.9618320610687023,-6.0534351145038165,0.603338818359375,-0.05985504150390625,8.832209924316405,28.388823529411766
2025-10-15T19:33:57.702651,-4.419847328244275,2.7251908396946565,-6.145038167938932,0.6248866333007812,-0.15083470458984374,9.054870678710937,28.48294117647059
2025-10-15T19:33:57.721167,-4.206106870229007,2.1068702290076335,-6.114503816793893,0.699106884765625,-0.14125789794921875,9.330203869628905,28.48294117647059
2025-10-15T19:33:57.743305,-4.687022900763359,3.0076335877862594,-6.305343511450381,0.3711012573242187,0.00239420166015625,9.064447485351561,28.435882352941178
2025-10-15T19:33:57.762798,-4.259541984732825,1.916030534351145,-6.595419847328245,0.5027823486328125,-0.10773907470703124,8.942343200683593,28.435882352941178
2025-10-15T19:33:57.780854,-3.8396946564885495,1.2442748091603053,-6.862595419847328,0.6919242797851562,-0.12210428466796874,9.09796630859375,28.341764705882355
2025-10-15T19:33:57.802815,-3.2290076335877864,1.3206106870229009,-6.862595419847328,0.4955997436523437,0.13646949462890623,9.038111267089842,28.48294117647059
2025-10-15T19:33:57.823136,-2.8473282442748094,-1.9541984732824427,-7.099236641221374,0.3399766357421875,-0.11731588134765625,9.143456140136719,28.435882352941178
2025-10-15T19:33:57.840317,-2.687022900763359,-0.6641221374045801,-7.091603053435114,0.5339069702148437,-0.09337386474609374,9.191340173339842,28.48294117647059
2025-10-15T19:33:57.862403,-2.3740458015267176,-0.6030534351145038,-7.450381679389313,0.5410895751953124,-0.076614453125,9.169792358398437,28.341764705882355
2025-10-15T19:33:57.883560,-2.0381679389312977,-1.2748091603053435,-7.557251908396947,0.36631285400390623,-0.02154781494140625,9.095572106933593,28.435882352941178
2025-10-15T19:33:57.900376,-2.068702290076336,-2.2977099236641223,-7.702290076335878,0.5530605834960938,0.0047884033203125,8.949525805664061,28.435882352941178
2025-10-15T19:33:57.922211,-2.068702290076336,-2.6946564885496183,-7.679389312977099,0.6153098266601562,-0.0047884033203125,9.0788126953125,28.341764705882355
2025-10-15T19:33:57.944260,-1.7557251908396947,-2.648854961832061,-7.557251908396947,0.46686932373046874,-0.21068974609375,9.241618408203124,28.388823529411766
2025-10-15T19:33:57.961066,-2.0381679389312977,-3.099236641221374,-7.694656488549619,0.4740519287109375,-0.13168109130859373,9.143456140136719,28.388823529411766
2025-10-15T19:33:57.983153,-1.916030534351145,-3.045801526717557,-7.175572519083969,0.39743747558593745,0.21308394775390624,9.337386474609374,28.435882352941178
2025-10-15T19:33:58.006056,-2.3893129770992365,-3.33587786259542,-6.015267175572519,0.7230489013671875,-0.031124621582031248,9.435548742675781,28.388823529411766
2025-10-15T19:33:58.022870,-4.244274809160306,-3.4885496183206106,-4.465648854961832,0.612915625,0.1005564697265625,9.555258825683593,28.388823529411766
2025-10-15T19:33:58.044684,-6.00763358778626,-4.351145038167939,-2.8702290076335877,0.5267243652343749,-0.076614453125,9.476250170898437,28.435882352941178
2025-10-15T19:33:58.067664,-7.145038167938932,-4.145038167938932,-1.4351145038167938,0.4429273071289062,0.3950432739257812,9.732429748535155,28.341764705882355
2025-10-15T19:33:58.084464,-8.465648854961833,-3.7404580152671754,-0.2366412213740458,0.6775590698242188,0.05027823486328125,9.7683427734375,28.435882352941178
2025-10-15T19:33:58.105212,-9.427480916030534,-4.030534351145038,0.4961832061068702,0.5434837768554687,-0.06464344482421874,9.572018237304688,28.48294117647059
2025-10-15T19:33:58.128235,-10.17557251908397,-4.061068702290076,2.145038167938931,0.6703764648437499,0.21308394775390624,10.04846436767578,28.341764705882355
2025-10-15T19:33:58.145901,-10.900763358778626,-2.8091603053435112,2.687022900763359,0.36391865234375,0.1484405029296875,9.87608184814453,28.388823529411766
2025-10-15T19:33:58.165641,-11.366412213740459,-2.9770992366412212,3.3969465648854964,0.679953271484375,0.1149216796875,9.804255798339844,28.388823529411766
2025-10-15T19:33:58.188094,-11.076335877862595,-2.2900763358778624,3.8625954198473282,0.7493851196289062,-0.023942016601562498,9.773131176757811,28.48294117647059
2025-10-15T19:33:58.206652,-10.083969465648854,-1.6106870229007633,4.221374045801527,0.74699091796875,-0.14125789794921875,9.550470422363281,28.48294117647059
2025-10-15T19:33:58.226320,-8.473282442748092,-0.916030534351145,4.030534351145038,0.9074024291992187,-0.12210428466796874,9.78031378173828,28.48294117647059
2025-10-15T19:33:58.248784,-7.366412213740458,-0.3435114503816794,3.7251908396946565,0.5793968017578125,-0.11252747802734374,9.516951599121093,28.341764705882355
2025-10-15T19:33:58.266955,-5.282442748091603,0.17557251908396945,3.6030534351145036,0.9002198242187499,-0.38307226562499996,9.631873278808593,28.435882352941178
2025-10-15T19:33:58.286795,-3.282442748091603,0.9389312977099237,2.801526717557252,0.7781155395507812,-0.1867477294921875,9.361328491210937,28.435882352941178
2025-10-15T19:33:58.309361,-0.549618320610687,2.068702290076336,2.1755725190839694,0.46208092041015625,-0.4070142822265625,9.26316622314453,28.48294117647059
2025-10-15T19:33:58.327051,2.5267175572519083,1.9465648854961832,1.1755725190839694,0.6488286499023437,-0.4261678955078125,8.980650427246093,28.341764705882355
2025-10-15T19:33:58.347267,5.076335877862595,0.10687022900763359,0.4351145038167939,0.7254431030273437,-0.5243301635742187,9.428366137695312,28.388823529411766
2025-10-15T19:33:58.369851,6.923664122137405,2.0229007633587788,-0.6412213740458015,0.49320554199218747,-0.08858546142578125,9.488221179199218,28.388823529411766
2025-10-15T19:33:58.387092,10.183206106870228,5.3816793893129775,-2.16793893129771,1.0007762939453124,-0.4644751220703125,9.445125549316407,28.435882352941178
2025-10-15T19:33:58.407598,10.511450381679388,3.9160305343511452,-2.9923664122137406,0.47644613037109373,-0.28969840087890625,8.724470849609375,28.53
2025-10-15T19:33:58.430290,13.541984732824428,6.419847328244275,-4.1603053435114505,0.41898529052734373,-0.3447650390625,9.157821350097656,28.435882352941178
2025-10-15T19:33:58.447174,15.49618320610687,7.656488549618321,-5.114503816793893,0.6655880615234374,-0.040701428222656245,8.863334545898438,28.388823529411766
2025-10-15T19:33:58.468123,17.27480916030534,8.13740458015267,-6.32824427480916,0.6631938598632812,-0.07422025146484375,8.78432589111328,28.48294117647059
2025-10-15T19:33:58.490998,18.48854961832061,7.458015267175573,-7.282442748091603,0.59376201171875,-0.055066638183593745,8.750807067871094,28.435882352941178
2025-10-15T19:33:58.507877,19.229007633587788,8.511450381679388,-7.99236641221374,0.373495458984375,-0.07422025146484375,8.659827404785156,28.24764705882353
2025-10-15T19:33:58.529153,18.938931297709924,8.625954198473282,-8.687022900763358,0.4740519287109375,-0.04548983154296875,8.793902697753905,28.388823529411766
2025-10-15T19:33:58.551921,18.80916030534351,7.427480916030534,-8.717557251908397,0.47884033203125,0.11252747802734374,8.959102612304687,28.48294117647059
2025-10-15T19:33:58.568712,16.900763358778626,7.366412213740458,-8.916030534351146,0.5243301635742187,0.03591302490234375,8.89924757080078,28.48294117647059
2025-10-15T19:33:58.589094,15.83969465648855,7.358778625954199,-9.061068702290076,0.41898529052734373,0.1867477294921875,8.904035974121093,28.341764705882355
2025-10-15T19:33:58.611633,13.557251908396946,4.809160305343512,-8.65648854961832,0.3112462158203125,0.27293898925781246,9.138667736816405,28.48294117647059
2025-10-15T19:33:58.628853,7.022900763358779,4.442748091603053,-7.5038167938931295,0.36631285400390623,1.0295067138671874,8.923189587402343,28.53
2025-10-15T19:33:58.648979,2.900763358778626,0.9236641221374046,-7.6106870229007635,0.13407529296874998,0.5315127685546874,9.016563452148437,28.388823529411766
2025-10-15T19:33:58.671329,1.4580152671755726,-1.8854961832061068,-6.984732824427481,0.5386953735351562,0.46686932373046874,9.87608184814453,28.341764705882355
2025-10-15T19:33:58.689405,-5.374045801526718,-1.0916030534351144,-5.679389312977099,0.13646949462890623,0.679953271484375,8.853757739257812,28.388823529411766
2025-10-15T19:33:58.708559,-8.870229007633588,-2.145038167938931,-4.656488549618321,-0.08140285644531249,0.7493851196289062,9.258377819824219,28.435882352941178
2025-10-15T19:33:58.730697,-13.259541984732824,-5.717557251908397,-4.0458015267175576,0.7302315063476562,0.86191259765625,9.26316622314453,28.388823529411766
2025-10-15T19:33:58.749603,-14.091603053435115,-6.9541984732824424,-3.3435114503816794,1.3263877197265623,1.1372457885742187,9.090783703613281,28.53
2025-10-15T19:33:58.767933,-17.549618320610687,-7.595419847328245,-2.8931297709923665,0.22744915771484372,0.011971008300781249,8.530540515136718,28.388823529411766
2025-10-15T19:33:58.789753,-19.633587786259543,-6.893129770992366,0.5877862595419847,1.0702081420898437,1.438915197753906,10.716446630859375,28.388823529411766
2025-10-15T19:33:58.809504,-22.99236641221374,-10.282442748091603,1.0687022900763359,-0.12449848632812499,0.507570751953125,9.509768994140625,28.388823529411766
2025-10-15T19:33:58.826994,-23.83969465648855,-9.374045801526718,3.068702290076336,0.9074024291992187,0.45010991210937495,9.713276135253906,28.48294117647059
2025-10-15T19:33:58.848625,-26.282442748091604,-9.16030534351145,4.969465648854962,0.565031591796875,0.0909796630859375,9.85692823486328,28.435882352941178
2025-10-15T19:33:58.868791,-27.595419847328245,-10.045801526717558,5.67175572519084,1.0103531005859374,0.10295067138671875,9.387664709472656,28.48294117647059
2025-10-15T19:33:58.885880,-28.946564885496183,-11.229007633587786,6.343511450381679,-0.09576806640624999,-0.49320554199218747,10.216058483886718,28.341764705882355
2025-10-15T19:33:58.907673,-28.870229007633586,-8.442748091603054,6.206106870229007,-0.354341845703125,0.181959326171875,9.840168823242188,28.388823529411766
2025-10-15T19:33:58.929114,-31.17557251908397,-8.030534351145038,8.687022900763358,-0.1771709228515625,0.8643067993164062,9.883264453125,28.341764705882355
2025-10-15T19:33:58.945906,-29.984732824427482,-7.5038167938931295,8.931297709923664,0.7900865478515624,-0.033518823242187495,9.952696301269532,28.435882352941178
2025-10-15T19:33:58.967740,-28.908396946564885,-8.053435114503817,7.893129770992366,0.5339069702148437,0.3280056274414062,10.002974536132811,28.388823529411766
2025-10-15T19:33:58.990343,-27.87786259541985,-2.6030534351145036,8.320610687022901,1.0749965454101562,-0.21308394775390624,9.162609753417968,28.435882352941178
2025-10-15T19:33:59.007170,-19.358778625954198,-8.083969465648854,9.977099236641221,-0.229843359375,-1.2737152832031249,12.569558715820312,28.341764705882355
2025-10-15T19:33:59.028910,-19.251908396946565,-4.244274809160306,9.67175572519084,0.7805097412109374,-1.3383587280273437,8.626308581542968,28.435882352941178
2025-10-15T19:33:59.051957,-21.14503816793893,-6.854961832061068,9.86259541984733,0.3447650390625,-0.4644751220703125,9.617508068847656,28.388823529411766
2025-10-15T19:33:59.068751,-12.702290076335878,1.9236641221374047,9.366412213740459,0.6057330200195312,-0.8044517578125,10.457872851562499,28.388823529411766
2025-10-15T19:33:59.090043,-9.511450381679388,-0.648854961832061,8.213740458015268,0.277727392578125,-1.3072341064453123,9.014169250488282,28.48294117647059
2025-10-15T19:33:59.112883,-2.1603053435114505,-2.7099236641221376,6.022900763358779,-0.45968671875,-0.8571241943359375,9.804255798339844,28.388823529411766
2025-10-15T19:33:59.129678,4.984732824427481,2.7786259541984735,4.870229007633588,1.218648645019531,-0.45010991210937495,9.5384994140625,28.388823529411766
2025-10-15T19:33:59.150295,11.114503816793894,1.3969465648854962,3.1526717557251906,0.7134720947265625,-1.0702081420898437,8.614337573242187,28.48294117647059
2025-10-15T19:33:59.172829,16.053435114503817,1.0305343511450382,1.450381679389313,0.7302315063476562,-0.3950432739257812,8.602366564941406,28.435882352941178
2025-10-15T19:33:59.190049,28.114503816793892,2.030534351145038,-0.04580152671755725,0.8403647827148437,-1.2378022583007813,9.02135185546875,28.294705882352943
2025-10-15T19:33:59.222086,33.56488549618321,3.8702290076335877,-4.236641221374046,0.26336218261718747,-1.1731588134765625,8.568847741699217,28.435882352941178
2025-10-15T19:33:59.246224,44.404580152671755,5.3816793893129775,-8.19083969465649,1.1611878051757811,-0.603338818359375,8.9255837890625,28.435882352941178
2025-10-15T19:33:59.270298,47.44274809160305,7.015267175572519,-10.251908396946565,0.9576806640625,-0.5961562133789062,8.480262280273436,28.388823529411766
2025-10-15T19:33:59.288868,52.717557251908396,8.694656488549619,-12.091603053435115,0.689530078125,-0.6248866333007812,8.259995727539062,28.388823529411766
2025-10-15T19:33:59.311016,53.29007633587786,7.931297709923665,-13.114503816793894,1.1348515869140625,0.3758896606445312,8.796296899414061,28.388823529411766
2025-10-15T19:33:59.330365,48.541984732824424,9.312977099236642,-12.34351145038168,0.7541735229492187,0.4070142822265625,8.765172277832031,28.48294117647059
2025-10-15T19:33:59.348297,44.70229007633588,11.0,-12.183206106870228,0.8451531860351562,0.7613561279296874,9.047688073730468,28.341764705882355
2025-10-15T19:33:59.370385,37.603053435114504,5.9465648854961835,-11.412213740458014,-0.16041151123046873,0.1484405029296875,9.3852705078125,28.388823529411766
2025-10-15T19:33:59.391001,29.870229007633586,11.977099236641221,-11.625954198473282,1.484405029296875,1.8363526733398436,9.56962403564453,28.435882352941178
2025-10-15T19:33:59.407827,23.297709923664122,13.083969465648854,-9.358778625954198,0.6153098266601562,1.01514150390625,8.48505068359375,28.341764705882355
2025-10-15T19:33:59.429539,17.16793893129771,8.946564885496183,-5.961832061068702,0.7015010864257812,0.7829039428710937,8.82263311767578,28.435882352941178
2025-10-15T19:33:59.450992,6.198473282442748,10.633587786259541,-5.099236641221374,0.12210428466796874,0.7924807495117187,8.86094034423828,28.341764705882355
2025-10-15T19:33:59.467828,-2.854961832061069,11.007633587786259,-3.2061068702290076,0.9959878906249999,1.6352397338867186,8.901641772460938,28.341764705882355
2025-10-15T19:33:59.489687,-16.34351145038168,6.595419847328245,0.32061068702290074,0.6392518432617187,1.8124106567382812,8.786720092773438,28.388823529411766
2025-10-15T19:33:59.512025,-27.870229007633586,6.702290076335878,2.9236641221374047,0.258573779296875,2.3127988037109373,10.172962854003906,28.435882352941178
2025-10-15T19:33:59.528884,-42.0,6.183206106870229,6.419847328244275,0.21787235107421873,1.1731588134765625,9.490615380859374,28.388823529411766
2025-10-15T19:33:59.550618,-46.61832061068702,4.175572519083969,8.572519083969466,0.689530078125,0.9026140258789062,9.557653027343749,28.388823529411766
2025-10-15T19:33:59.573680,-53.3206106870229,0.7862595419847328,9.351145038167939,0.4955997436523437,0.6081272216796875,8.449137658691406,28.388823529411766
2025-10-15T19:33:59.590501,-51.534351145038165,-1.7099236641221374,9.312977099236642,0.63206923828125,0.565031591796875,9.507374792480467,28.53
2025-10-15T19:33:59.611803,-53.32824427480916,-3.7480916030534353,8.267175572519085,0.17477672119140625,-0.5051765502929687,8.858546142578124,28.341764705882355
2025-10-15T19:33:59.634864,-47.12977099236641,-5.511450381679389,8.793893129770993,0.15083470458984374,-0.6464344482421874,8.942343200683593,28.388823529411766
2025-10-15T19:33:59.651668,-44.87786259541985,-9.282442748091603,7.320610687022901,0.10295067138671875,-0.3232172241210937,8.444349255371094,28.388823529411766
2025-10-15T19:33:59.672773,-40.61068702290076,-7.732824427480916,6.083969465648855,0.7493851196289062,-0.41419688720703124,9.694122521972655,28.53
2025-10-15T19:33:59.695515,-33.3587786259542,-11.534351145038167,6.419847328244275,0.4213794921875,0.5243301635742187,9.828197814941406,28.435882352941178
2025-10-15T19:33:59.712327,-25.519083969465647,-11.229007633587786,3.9618320610687023,-0.258573779296875,-0.9193734375,9.734823950195311,28.435882352941178
2025-10-15T19:33:59.732786,-22.419847328244273,-10.564885496183207,2.633587786259542,1.0582371337890624,-2.5761609863281247,10.606313354492187,28.435882352941178
2025-10-15T19:33:59.755660,-15.778625954198473,-14.061068702290076,5.412213740458015,-0.4429273071289062,1.1444283935546875,10.338162768554687,28.48294117647059
2025-10-15T19:33:59.773349,-10.931297709923664,-10.183206106870228,2.33587786259542,-0.19871873779296872,-0.9145850341796874,9.639055883789062,28.435882352941178
2025-10-15T19:33:59.792924,-5.305343511450381,-13.893129770992367,2.6412213740458017,1.8555062866210936,0.44532150878906246,9.852139831542969,28.48294117647059
2025-10-15T19:33:59.815257,-3.931297709923664,-8.244274809160306,5.801526717557252,-0.11731588134765625,-1.1013327636718748,9.162609753417968,28.388823529411766
2025-10-15T19:33:59.833778,-1.9312977099236641,-9.931297709923664,1.8473282442748091,0.3711012573242187,-0.47644613037109373,11.192892761230468,28.48294117647059
2025-10-15T19:33:59.852572,-1.984732824427481,-10.49618320610687,5.793893129770993,0.29927520751953124,0.13407529296874998,10.134655627441406,28.435882352941178
2025-10-15T19:33:59.879364,2.2519083969465647,-11.282442748091603,3.381679389312977,1.618480322265625,0.0,11.113884106445312,28.435882352941178
2025-10-15T19:33:59.898778,-0.3969465648854962,-8.801526717557252,4.4961832061068705,0.6584054565429687,0.46208092041015625,10.309432348632813,28.341764705882355
2025-10-15T19:33:59.925956,1.9618320610687023,-6.870229007633588,4.694656488549619,0.5889736083984375,-0.316034619140625,10.172962854003906,28.388823529411766
2025-10-15T19:33:59.949027,2.3282442748091605,-5.297709923664122,4.183206106870229,0.32082302246093747,0.05746083984375,9.574412438964844,28.388823529411766
2025-10-15T19:33:59.966360,4.175572519083969,-3.984732824427481,4.473282442748092,0.6200982299804687,-0.07422025146484375,10.570400329589843,28.388823529411766
2025-10-15T19:33:59.986398,3.4732824427480917,-3.816793893129771,3.5801526717557253,0.9504980590820312,0.5003881469726562,9.7683427734375,28.48294117647059
2025-10-15T19:34:00.009060,4.312977099236641,-1.786259541984733,4.1679389312977095,0.47644613037109373,-0.1771709228515625,10.04846436767578,28.388823529411766
2025-10-15T19:34:00.027596,3.5572519083969465,0.8778625954198473,4.0,1.0438719238281249,0.29927520751953124,9.730035546875,28.48294117647059
2025-10-15T19:34:00.046353,3.366412213740458,3.2213740458015265,3.969465648854962,1.0486603271484374,-0.6584054565429687,9.2320416015625,28.388823529411766
2025-10-15T19:34:00.068624,4.778625954198473,4.221374045801527,3.145038167938931,0.8044517578125,-0.19153613281249998,9.0788126953125,28.388823529411766
2025-10-15T19:34:00.088036,7.778625954198473,4.961832061068702,2.183206106870229,1.1037269653320312,-1.0007762939453124,9.081206896972656,28.53
2025-10-15T19:34:00.106706,10.786259541984732,7.557251908396947,0.9541984732824428,1.0726023437499999,-0.603338818359375,9.102754711914063,28.48294117647059
2025-10-15T19:34:00.128968,14.564885496183207,9.687022900763358,0.07633587786259542,0.63206923828125,-0.41419688720703124,9.291896643066405,28.435882352941178
2025-10-15T19:34:00.148420,19.0381679389313,9.763358778625955,-1.6870229007633588,0.055066638183593745,-0.9911994873046874,8.10197841796875,28.388823529411766
2025-10-15T19:34:00.167021,23.0381679389313,12.213740458015268,-0.3511450381679389,0.5147533569335937,0.3399766357421875,8.384494213867187,28.388823529411766
2025-10-15T19:34:00.189287,25.82442748091603,17.091603053435115,-3.068702290076336,0.5530605834960938,-1.0127473022460938,8.487444885253906,28.435882352941178
2025-10-15T19:34:00.208658,35.16793893129771,13.206106870229007,-5.656488549618321,1.3766659545898436,-0.9600748657226562,8.576030346679687,28.48294117647059
2025-10-15T19:34:00.227277,39.030534351145036,16.015267175572518,-8.290076335877863,0.59376201171875,0.4261678955078125,9.129090930175781,28.388823529411766
2025-10-15T19:34:00.249968,37.916030534351144,16.587786259541986,-7.33587786259542,0.6272808349609375,-1.5059528442382812,8.394071020507813,28.48294117647059
2025-10-15T19:34:00.269377,46.31297709923664,13.740458015267176,-11.396946564885496,0.7398083129882812,0.2537853759765625,8.616731774902343,28.341764705882355
2025-10-15T19:34:00.287327,44.41984732824427,16.801526717557252,-10.488549618320612,0.2561795776367187,0.06943184814453125,9.442731347656249,28.341764705882355
2025-10-15T19:34:00.309401,42.42748091603053,16.198473282442748,-11.687022900763358,0.3112462158203125,1.0773907470703123,9.17458076171875,28.48294117647059
2025-10-15T19:34:00.329913,33.267175572519086,12.900763358778626,-7.824427480916031,0.01915361328125,-0.430956298828125,8.595183959960938,28.388823529411766
2025-10-15T19:34:00.348298,27.435114503816795,12.969465648854962,-8.526717557251908,-0.565031591796875,2.0925322509765625,9.0788126953125,28.341764705882355
2025-10-15T19:34:00.370508,15.045801526717558,9.259541984732824,-6.8320610687022905,0.5913678100585937,0.9528922607421875,9.07163009033203,28.388823529411766
2025-10-15T19:34:00.390759,5.442748091603053,-1.083969465648855,-7.732824427480916,0.22266075439453123,0.9241618408203125,9.579200842285156,28.388823529411766
2025-10-15T19:34:00.407913,-5.1679389312977095,2.50381679389313,-2.816793893129771,0.011971008300781249,0.9169792358398436,9.682151513671874,28.435882352941178
2025-10-15T19:34:00.429947,-7.282442748091603,1.83206106870229,-0.015267175572519083,0.7517793212890624,1.0845733520507812,8.86094034423828,28.48294117647059
2025-10-15T19:34:00.451496,-15.923664122137405,-2.6717557251908395,0.33587786259541985,0.3687070556640625,0.8092401611328125,8.954314208984375,28.48294117647059
2025-10-15T19:34:00.468356,-21.404580152671755,-6.343511450381679,1.7938931297709924,0.35194764404296874,1.024718310546875,9.294290844726563,28.577058823529413
2025-10-15T19:34:00.490463,-25.14503816793893,-5.259541984732825,3.2290076335877864,0.5027823486328125,0.16998831787109375,9.65342109375,28.388823529411766
2025-10-15T19:34:00.512868,-29.374045801526716,-5.587786259541985,4.694656488549619,0.2346317626953125,0.9002198242187499,8.851363537597656,28.341764705882355
2025-10-15T19:34:00.529684,-34.55725190839695,-9.572519083969466,5.885496183206107,0.36631285400390623,0.5315127685546874,9.342174877929686,28.435882352941178
2025-10-15T19:34:00.551681,-37.44274809160305,-11.664122137404581,7.068702290076335,0.6344634399414062,0.3184288208007812,9.265560424804686,28.341764705882355
2025-10-15T19:34:00.575205,-38.19083969465649,-9.992366412213741,7.473282442748092,0.622492431640625,0.3806780639648437,9.361328491210937,28.388823529411766
2025-10-15T19:34:00.592053,-40.13740458015267,-10.916030534351146,7.740458015267175,0.5674257934570313,0.24181436767578124,9.299079248046874,28.388823529411766
2025-10-15T19:34:00.613402,-39.16793893129771,-13.320610687022901,8.007633587786259,0.46686932373046874,0.12449848632812499,9.679757312011718,28.53
2025-10-15T19:34:00.636179,-41.32824427480916,-13.50381679389313,8.51908396946565,0.34715924072265625,-0.0430956298828125,9.509768994140625,28.435882352941178
2025-10-15T19:34:00.652985,-40.06870229007634,-12.129770992366412,8.34351145038168,0.3758896606445312,-0.316034619140625,9.801861596679688,28.435882352941178
2025-10-15T19:34:00.673468,-39.37404580152672,-13.389312977099237,7.687022900763359,0.4836287353515625,-0.5003881469726562,9.586383447265625,28.53
2025-10-15T19:34:00.696023,-37.32824427480916,-14.038167938931299,7.595419847328245,1.0893617553710937,-0.3687070556640625,9.466673364257812,28.48294117647059
2025-10-15T19:34:00.713266,-33.02290076335878,-15.01526717557252,7.083969465648855,0.239420166015625,-0.3232172241210937,9.883264453125,28.388823529411766
2025-10-15T19:34:00.733288,-31.213740458015266,-16.091603053435115,7.2748091603053435,0.45010991210937495,-0.36391865234375,9.76116016845703,28.48294117647059
2025-10-15T19:34:00.755968,-25.931297709923665,-14.664122137404581,6.396946564885496,0.5698199951171875,-0.5889736083984375,9.976638317871092,28.435882352941178
2025-10-15T19:34:00.774052,-22.091603053435115,-13.992366412213741,6.709923664122138,0.7709329345703124,-0.5315127685546874,9.907206469726562,28.388823529411766
2025-10-15T19:34:00.793238,-17.213740458015266,-12.83206106870229,5.633587786259542,0.46686932373046874,-0.9528922607421875,9.457096557617186,28.341764705882355
2025-10-15T19:34:00.815692,-13.099236641221374,-11.786259541984732,5.419847328244275,0.7278373046875,-0.47165772705078124,9.782707983398437,28.53
2025-10-15T19:34:00.834614,-7.190839694656488,-9.473282442748092,4.6183206106870225,0.8978256225585937,-0.46208092041015625,9.957484704589843,28.48294117647059
2025-10-15T19:34:00.852978,-3.1908396946564888,-7.511450381679389,3.801526717557252,0.6919242797851562,-0.7852981445312499,9.782707983398437,28.435882352941178
2025-10-15T19:34:00.875112,1.7938931297709924,-5.152671755725191,3.3435114503816794,0.5578489868164063,-0.6488286499023437,9.935936889648437,28.388823529411766
2025-10-15T19:34:00.895302,6.480916030534351,-2.8396946564885495,2.7404580152671754,1.0031704956054688,-0.6440402465820312,9.926360083007811,28.435882352941178
2025-10-15T19:34:00.912459,10.702290076335878,0.35877862595419846,3.885496183206107,0.8834604125976562,-0.9074024291992187,9.801861596679688,28.48294117647059
2025-10-15T19:34:00.934341,14.572519083969466,2.4427480916030535,1.381679389312977,0.699106884765625,-0.833182177734375,9.710881933593749,28.294705882352943
2025-10-15T19:34:00.954960,20.419847328244273,4.480916030534351,0.3511450381679389,1.1468225952148436,-0.7709329345703124,9.624690673828125,28.388823529411766
2025-10-15T19:34:00.971804,27.061068702290076,7.33587786259542,-1.1297709923664123,0.8451531860351562,-0.46686932373046874,9.53131680908203,28.53
2025-10-15T19:34:00.993485,32.33587786259542,10.381679389312977,-2.5114503816793894,0.8475473876953125,-1.2928688964843749,9.279925634765624,28.388823529411766
2025-10-15T19:34:01.014932,41.51908396946565,13.419847328244275,-5.549618320610687,0.6272808349609375,-1.1444283935546875,9.241618408203124,28.388823529411766
2025-10-15T19:34:01.031754,44.954198473282446,13.770992366412214,-7.6183206106870225,0.7757213378906249,-0.7254431030273437,9.205705383300781,28.388823529411766
2025-10-15T19:34:01.053594,53.56488549618321,18.82442748091603,-10.129770992366412,1.5658078857421873,0.6009446166992187,10.230423693847655,28.53
2025-10-15T19:34:01.075897,46.587786259541986,20.19083969465649,-9.549618320610687,0.7326257080078125,0.15562310791015624,8.832209924316405,28.48294117647059
2025-10-15T19:34:01.092765,51.534351145038165,22.641221374045802,-11.763358778625955,0.8020575561523438,0.21308394775390624,9.660603698730467,28.48294117647059
2025-10-15T19:34:01.114626,47.961832061068705,23.84732824427481,-13.427480916030534,1.4437036010742186,-0.12689268798828124,9.241618408203124,28.53
2025-10-15T19:34:01.137806,40.70229007633588,22.946564885496183,-10.419847328244275,1.1707646118164061,0.3591302490234375,9.775525378417969,28.435882352941178
2025-10-15T19:34:01.154701,33.091603053435115,23.557251908396946,-10.908396946564885,-0.6248866333007812,2.3343466186523436,7.486668591308593,28.388823529411766
2025-10-15T19:34:01.176421,26.702290076335878,22.022900763358777,-10.679389312977099,0.9816226806640624,0.28730419921875,7.994239343261718,28.341764705882355
2025-10-15T19:34:01.201011,23.435114503816795,23.091603053435115,-9.007633587786259,1.6472107421875,0.16998831787109375,8.734047656249999,28.48294117647059
2025-10-15T19:34:01.218875,11.717557251908397,21.38167938931298,-6.885496183206107,0.4955997436523437,0.7733271362304687,8.91840118408203,28.435882352941178
2025-10-15T19:34:01.239494,1.5419847328244274,16.442748091603054,-4.99236641221374,-0.181959326171875,1.3742717529296875,7.8170684204101555,28.388823529411766
2025-10-15T19:34:01.262481,-10.221374045801527,10.030534351145038,-2.450381679389313,-0.7685387329101562,0.1149216796875,7.223306408691406,28.388823529411766
2025-10-15T19:34:01.280246,-25.083969465648856,-2.183206106870229,0.5267175572519084,0.0,2.0087351928710935,9.610325463867188,28.48294117647059
2025-10-15T19:34:01.300056,-27.587786259541986,11.312977099236642,0.7404580152671756,0.36391865234375,0.201112939453125,8.295908752441406,28.48294117647059
2025-10-15T19:34:01.322837,-27.404580152671755,-0.48091603053435117,3.2290076335877864,0.21787235107421873,0.6177040283203125,8.259995727539062,28.53
2025-10-15T19:34:01.341406,-40.18320610687023,-7.297709923664122,3.687022900763359,-0.12689268798828124,1.0199299072265624,7.038952880859375,28.341764705882355
2025-10-15T19:34:01.360808,-37.98473282442748,-3.2900763358778624,2.198473282442748,1.1348515869140625,-0.08858546142578125,9.05965908203125,28.48294117647059
2025-10-15T19:34:01.383044,-43.51145038167939,-6.99236641221374,5.3893129770992365,-0.5410895751953124,0.08379705810546874,7.539341027832031,28.388823529411766
2025-10-15T19:34:01.402083,-51.18320610687023,-12.893129770992367,6.6183206106870225,0.28012159423828126,1.1611878051757811,9.18655177001953,28.388823529411766
2025-10-15T19:34:01.420710,-51.9236641221374,-11.625954198473282,4.923664122137405,0.8786720092773437,-0.51714755859375,8.781931689453124,28.341764705882355
2025-10-15T19:34:01.443019,-46.32824427480916,-18.34351145038168,5.236641221374046,1.6927005737304686,0.8978256225585937,11.2240173828125,28.48294117647059
2025-10-15T19:34:01.462465,-39.98473282442748,-13.923664122137405,2.885496183206107,-1.47482822265625,-3.3782185424804685,9.179369165039063,28.435882352941178
2025-10-15T19:34:01.481656,-12.442748091603054,-0.07633587786259542,2.633587786259542,1.7166425903320313,-1.5753846923828123,14.698003991699219,28.53
2025-10-15T19:34:01.504021,-19.625954198473284,1.1297709923664123,-2.633587786259542,0.05985504150390625,-0.19153613281249998,7.886500268554687,28.388823529411766
2025-10-15T19:34:01.522202,10.572519083969466,-9.923664122137405,-5.816793893129771,1.6735469604492186,-4.187458703613281,14.8248966796875,28.435882352941178
2025-10-15T19:34:01.542432,4.6183206106870225,-0.7557251908396947,-3.969465648854962,-0.16998831787109375,-1.3551181396484375,7.292738256835937,28.48294117647059
2025-10-15T19:34:01.565411,29.389312977099237,1.9083969465648856,-6.1679389312977095,-0.3902548706054687,-0.5602431884765625,8.820238916015624,28.435882352941178
2025-10-15T19:34:01.583592,15.274809160305344,-3.2061068702290076,-1.2290076335877862,0.1867477294921875,0.1867477294921875,8.276755139160155,28.48294117647059
2025-10-15T19:34:01.603033,18.076335877862597,-6.740458015267175,1.5114503816793894,-0.7996633544921875,0.7637503295898437,6.919242797851562,28.435882352941178
2025-10-15T19:34:01.625395,2.9236641221374047,-12.259541984732824,5.320610687022901,0.2609679809570312,0.086191259765625,8.307879760742187,28.48294117647059
2025-10-15T19:34:01.644422,5.404580152671755,-15.610687022900763,6.259541984732825,0.9145850341796874,-0.6464344482421874,9.694122521972655,28.48294117647059
2025-10-15T19:34:01.663078,-5.106870229007634,-17.84732824427481,10.885496183206106,0.9864110839843749,1.6543933471679686,7.4699091796875,28.435882352941178
2025-10-15T19:34:01.685540,-1.2442748091603053,-11.335877862595419,9.198473282442748,0.7757213378906249,0.354341845703125,11.310208642578125,28.435882352941178
2025-10-15T19:34:01.705422,-3.4122137404580153,-4.8396946564885495,8.274809160305344,-3.057395520019531,0.4285620971679687,8.480262280273436,28.48294117647059
2025-10-15T19:34:01.723180,-2.801526717557252,-7.3816793893129775,8.992366412213741,1.446097802734375,1.7693150268554687,10.824185705566405,28.388823529411766
2025-10-15T19:34:01.745345,-9.748091603053435,-6.0,10.931297709923664,5.418078356933593,0.4644751220703125,13.407529296875,28.435882352941178
2025-10-15T19:34:01.766069,-3.549618320610687,-2.4427480916030535,7.809160305343512,2.9281086303710935,2.398990063476562,8.068459594726562,28.53
2025-10-15T19:34:01.783257,-0.183206106870229,-1.3053435114503817,12.122137404580153,-2.8275521606445313,-0.23702596435546874,9.87608184814453,28.48294117647059
2025-10-15T19:34:01.805265,-10.98473282442748,-6.770992366412214,14.389312977099237,-0.737414111328125,-1.5275006591796874,9.02135185546875,28.48294117647059
2025-10-15T19:34:01.826856,-7.66412213740458,4.923664122137405,12.938931297709924,-0.2920926025390625,-1.8315642700195311,6.189011291503906,28.341764705882355
2025-10-15T19:34:01.843816,-10.335877862595419,6.236641221374046,14.244274809160306,0.07422025146484375,-0.22744915771484372,10.007762939453125,28.388823529411766
2025-10-15T19:34:01.865791,-5.549618320610687,7.320610687022901,12.244274809160306,-0.3758896606445312,0.5339069702148437,8.853757739257812,28.435882352941178
2025-10-15T19:34:01.887805,-2.2900763358778624,7.190839694656488,11.778625954198473,0.3711012573242187,-0.2154781494140625,9.409212524414063,28.435882352941178
2025-10-15T19:34:01.904721,-0.7480916030534351,12.801526717557252,6.198473282442748,1.6448165405273436,-0.5099649536132812,9.047688073730468,28.48294117647059
2025-10-15T19:34:01.926945,0.7786259541984732,8.374045801526718,6.412213740458015,0.44532150878906246,-0.6560112548828124,9.205705383300781,28.388823529411766
2025-10-15T19:34:01.949803,0.45038167938931295,11.290076335877863,7.885496183206107,0.8283937744140625,0.4836287353515625,10.673351000976561,28.435882352941178
2025-10-15T19:34:01.966838,7.114503816793893,16.671755725190838,5.030534351145038,0.1005564697265625,-1.5346832641601562,10.156203442382813,28.341764705882355
2025-10-15T19:34:01.988665,6.022900763358779,14.877862595419847,4.1603053435114505,-0.17477672119140625,-0.5674257934570313,8.877699755859375,28.48294117647059
2025-10-15T19:34:02.011755,13.15267175572519,14.664122137404581,3.1908396946564888,0.8259995727539062,-0.0143652099609375,9.272743029785156,28.388823529411766
2025-10-15T19:34:02.028659,16.72519083969466,12.290076335877863,0.7022900763358778,0.9720458740234375,-0.6584054565429687,8.066065393066406,28.435882352941178
2025-10-15T19:34:02.049940,19.923664122137403,14.98473282442748,-0.6259541984732825,-0.239420166015625,-0.28490999755859375,8.487444885253906,28.388823529411766
2025-10-15T19:34:02.072814,22.450381679389313,12.702290076335878,-1.8931297709923665,0.5003881469726562,-0.21308394775390624,8.180987072753906,28.435882352941178
2025-10-15T19:34:02.089684,23.549618320610687,7.511450381679389,-2.8625954198473282,0.8690952026367187,-0.0718260498046875,8.353369592285155,28.341764705882355
2025-10-15T19:34:02.110457,24.984732824427482,7.847328244274809,-3.480916030534351,-0.11731588134765625,-0.3064578125,8.578424548339843,28.48294117647059
2025-10-15T19:34:02.133143,24.480916030534353,5.984732824427481,-4.137404580152672,0.07900865478515624,0.0143652099609375,8.32463917236328,28.53
2025-10-15T19:34:02.150466,23.061068702290076,1.5267175572519085,-4.083969465648855,0.3112462158203125,0.1197100830078125,8.295908752441406,28.48294117647059
2025-10-15T19:34:02.170805,21.015267175572518,-0.9312977099236641,-3.5343511450381677,0.0430956298828125,0.5770026000976562,8.75320126953125,28.388823529411766
2025-10-15T19:34:02.193438,17.671755725190838,-3.450381679389313,-3.045801526717557,0.296881005859375,0.3806780639648437,8.75320126953125,28.435882352941178
2025-10-15T19:34:02.211152,9.992366412213741,-8.50381679389313,-1.4122137404580153,0.06943184814453125,0.6679822631835937,8.13310303955078,28.435882352941178
2025-10-15T19:34:02.231412,6.022900763358779,-13.16793893129771,-0.24427480916030533,0.1771709228515625,0.5147533569335937,8.999804040527343,28.341764705882355
2025-10-15T19:34:02.253934,0.33587786259541985,-14.213740458015268,1.1603053435114503,0.34237083740234375,0.8930372192382812,8.959102612304687,28.435882352941178
2025-10-15T19:34:02.272096,-3.572519083969466,-15.396946564885496,2.282442748091603,0.3806780639648437,0.5722141967773438,9.074024291992187,28.388823529411766
2025-10-15T19:34:02.291537,-9.51908396946565,-18.916030534351144,3.6564885496183206,0.2154781494140625,0.8571241943359375,9.255983618164063,28.48294117647059
2025-10-15T19:34:02.313951,-14.106870229007633,-20.755725190839694,4.641221374045801,0.39743747558593745,0.718260498046875,9.90241806640625,28.435882352941178
2025-10-15T19:34:02.332520,-20.053435114503817,-19.396946564885496,6.129770992366412,0.584185205078125,0.7398083129882812,9.708487731933593,28.435882352941178
2025-10-15T19:34:02.351504,-16.18320610687023,-12.725190839694656,5.9465648854961835,0.51714755859375,0.6512228515624999,13.45780753173828,28.435882352941178
2025-10-15T19:34:02.373704,-8.122137404580153,-1.4427480916030535,4.129770992366412,0.23223756103515625,2.0542250244140625,12.564770312499999,28.435882352941178
2025-10-15T19:34:02.392725,-10.694656488549619,-7.206106870229007,1.6030534351145038,-0.01915361328125,0.9696516723632812,11.077971081542968,28.435882352941178
2025-10-15T19:34:02.411474,-2.099236641221374,-4.641221374045801,0.4580152671755725,-0.1292868896484375,-0.19632453613281248,14.463372229003905,28.435882352941178
2025-10-15T19:34:02.433858,-3.2900763358778624,3.885496183206107,0.22900763358778625,-0.05746083984375,1.3287819213867187,8.437166650390624,28.48294117647059
2025-10-15T19:34:02.453729,-7.137404580152672,3.5801526717557253,5.015267175572519,0.3232172241210937,0.6392518432617187,10.589553942871094,28.435882352941178
2025-10-15T19:34:02.471446,-5.778625954198473,4.038167938931298,6.694656488549619,1.4030021728515625,1.0366893188476562,9.205705383300781,28.388823529411766
2025-10-15T19:34:02.493277,-22.068702290076335,-3.854961832061069,12.129770992366412,-0.296881005859375,0.6607996582031249,7.762001782226562,28.53
2025-10-15T19:34:02.514012,-28.53435114503817,-5.1603053435114505,14.030534351145038,-0.25139117431640623,1.1851298217773436,8.834604125976561,28.435882352941178
2025-10-15T19:34:02.530904,-42.05343511450382,-6.549618320610687,18.061068702290076,1.13006318359375,0.814028564453125,9.191340173339842,28.48294117647059
2025-10-15T19:34:02.552891,-41.56488549618321,-3.2213740458015265,18.51145038167939,1.446097802734375,-0.00239420166015625,9.734823950195311,28.388823529411766
2025-10-15T19:34:02.574472,-51.900763358778626,-9.129770992366412,22.412213740458014,0.45010991210937495,-0.2537853759765625,7.429207751464843,28.388823529411766
2025-10-15T19:34:02.591387,-47.916030534351144,-8.16793893129771,22.30534351145038,0.28969840087890625,-0.37828386230468747,10.939107385253905,28.435882352941178
2025-10-15T19:34:02.613793,-47.916030534351144,-4.679389312977099,21.50381679389313,0.5099649536132812,0.2561795776367187,9.255983618164063,28.435882352941178
2025-10-15T19:34:02.636242,-41.229007633587784,-2.2900763358778624,19.778625954198475,0.11252747802734374,0.26815058593749996,11.33175645751953,28.48294117647059
2025-10-15T19:34:02.653136,-36.61832061068702,5.3816793893129775,22.16793893129771,1.7669208251953124,0.2561795776367187,11.643002673339844,28.341764705882355
2025-10-15T19:34:02.675101,-34.32824427480916,6.236641221374046,20.38167938931298,0.49320554199218747,-1.8914193115234375,6.955155822753905,28.341764705882355
2025-10-15T19:34:02.698286,-25.84732824427481,0.6946564885496184,19.412213740458014,1.407790576171875,-0.6607996582031249,10.160991845703125,28.435882352941178
2025-10-15T19:34:02.715212,-16.099236641221374,3.564885496183206,18.72519083969466,1.369483349609375,-1.197100830078125,9.490615380859374,28.48294117647059
2025-10-15T19:34:02.737146,-5.755725190839694,16.916030534351144,15.83969465648855,0.5027823486328125,-0.737414111328125,10.43153663330078,28.435882352941178
2025-10-15T19:34:02.759590,4.030534351145038,23.404580152671755,13.564885496183207,-0.13646949462890623,-1.0295067138671874,8.614337573242187,28.435882352941178
2025-10-15T19:34:02.776491,16.786259541984734,18.053435114503817,10.969465648854962,-2.133233679199219,-0.5458779785156249,7.9272016967773435,28.388823529411766
2025-10-15T19:34:02.798527,24.977099236641223,11.16030534351145,8.534351145038167,0.9217676391601562,-1.2641384765625,8.202534887695313,28.388823529411766
2025-10-15T19:34:02.821703,36.61068702290076,12.709923664122137,7.755725190839694,-0.6703764648437499,-1.5921441040039062,8.441955053710936,28.48294117647059
2025-10-15T19:34:02.838736,43.732824427480914,20.480916030534353,4.099236641221374,0.4477157104492187,-0.6009446166992187,7.951143713378905,28.388823529411766
2025-10-15T19:34:02.860191,48.83969465648855,21.38167938931298,2.49618320610687,1.0462661254882812,0.22505495605468748,8.475473876953124,28.53
2025-10-15T19:34:02.883473,45.465648854961835,10.755725190839694,3.3435114503816794,0.3711012573242187,-0.8164227661132812,6.967126831054687,28.48294117647059
2025-10-15T19:34:02.900352,63.31297709923664,14.755725190839694,-7.106870229007634,-1.5969325073242187,-2.0973206542968748,8.975862023925782,28.435882352941178
2025-10-15T19:34:02.921091,64.29007633587786,16.229007633587788,-8.320610687022901,1.4915876342773438,-3.2321722412109373,7.3286512817382805,28.48294117647059
2025-10-15T19:34:02.944063,68.44274809160305,10.312977099236642,-9.305343511450381,-0.8092401611328125,2.7198130859375,8.111555224609374,28.388823529411766
2025-10-15T19:34:02.961824,66.02290076335878,7.595419847328245,-10.954198473282442,0.13646949462890623,0.13407529296874998,8.89924757080078,28.388823529411766
2025-10-15T19:34:02.981728,63.36641221374046,6.931297709923665,-10.488549618320612,-0.8164227661132812,0.1867477294921875,8.564059338378906,28.435882352941178
2025-10-15T19:34:03.004176,59.37404580152672,8.0,-11.618320610687023,-0.30885201416015623,0.9528922607421875,6.950367419433594,28.341764705882355
2025-10-15T19:34:03.021891,48.412213740458014,-5.7251908396946565,-9.80916030534351,0.36631285400390623,2.559401574707031,7.551312036132812,28.388823529411766
2025-10-15T19:34:03.041782,27.251908396946565,-9.114503816793894,-4.648854961832061,-1.2976572998046874,-0.41419688720703124,7.9272016967773435,28.435882352941178
2025-10-15T19:34:03.064231,24.450381679389313,-13.114503816793894,-0.42748091603053434,-0.44053310546874996,2.0566192260742184,9.698910925292969,28.341764705882355
2025-10-15T19:34:03.082366,5.251908396946565,-14.938931297709924,3.213740458015267,-0.737414111328125,2.7581203125,6.902483386230468,28.388823529411766
2025-10-15T19:34:03.101865,-5.190839694656488,-17.53435114503817,6.435114503816794,3.1675287963867187,2.5761609863281247,8.908824377441405,28.48294117647059
2025-10-15T19:34:03.124564,-24.870229007633586,-22.129770992366414,11.770992366412214,-0.47884033203125,2.4851813232421875,9.770736975097655,28.48294117647059
2025-10-15T19:34:03.143125,-31.96946564885496,-22.33587786259542,13.122137404580153,-0.47884033203125,3.7517140014648436,9.330203869628905,28.294705882352943
2025-10-15T19:34:03.162260,-54.52671755725191,-25.48854961832061,18.50381679389313,-0.5003881469726562,0.13168109130859373,9.141061938476563,28.435882352941178
2025-10-15T19:34:03.184505,-57.267175572519086,-26.450381679389313,15.84732824427481,0.6105214233398437,1.927332336425781,10.04846436767578,28.341764705882355
2025-10-15T19:34:03.203077,-83.94656488549619,-23.099236641221374,22.106870229007633,-1.4006079711914061,2.588131994628906,9.502586389160156,28.435882352941178
2025-10-15T19:34:03.222072,-83.7557251908397,-27.0,22.404580152671755,0.16519991455078123,3.1124621582031247,10.735600244140624,28.53
2025-10-15T19:34:03.244228,-96.3587786259542,-28.34351145038168,24.076335877862597,-0.08858546142578125,0.9337386474609375,11.125855114746093,28.435882352941178
2025-10-15T19:34:03.263223,-92.9618320610687,-25.908396946564885,22.549618320610687,0.9888052856445312,1.0007762939453124,10.134655627441406,28.294705882352943
2025-10-15T19:34:03.281785,-98.29007633587786,-26.17557251908397,22.099236641221374,1.1563994018554686,-1.9823989746093749,8.228871105957031,28.53
2025-10-15T19:34:03.303819,-87.61068702290076,-22.564885496183205,18.221374045801525,0.43574470214843747,0.22026655273437498,11.585541833496093,28.435882352941178
2025-10-15T19:34:03.323328,-82.4885496183206,-9.549618320610687,18.557251908396946,0.5961562133789062,-3.0597897216796874,7.915230688476562,28.435882352941178
2025-10-15T19:34:03.341616,-72.08396946564885,-15.320610687022901,18.46564885496183,0.3447650390625,-0.6177040283203125,7.912836486816405,28.435882352941178
2025-10-15T19:34:03.363576,-64.80152671755725,-10.366412213740459,18.47328244274809,-0.507570751953125,-0.7924807495117187,9.481038574218749,28.48294117647059
2025-10-15T19:34:03.383545,-43.67175572519084,-6.778625954198473,15.030534351145038,2.8945898071289062,-3.2225954345703123,9.739612353515625,28.388823529411766
2025-10-15T19:34:03.402049,-32.9236641221374,-5.519083969465649,12.763358778625955,2.281674182128906,-4.218583325195312,11.298237634277344,28.48294117647059
2025-10-15T19:34:03.424127,-16.00763358778626,-1.6259541984732824,9.458015267175572,0.7805097412109374,-2.231395947265625,10.651803186035156,28.341764705882355
2025-10-15T19:34:03.443600,3.763358778625954,2.16793893129771,7.0534351145038165,1.5107412475585937,-2.8658593872070313,10.472238061523436,28.388823529411766
2025-10-15T19:34:03.461904,22.229007633587788,11.198473282442748,2.6412213740458017,-0.062249243164062495,-2.133233679199219,9.983820922851562,28.435882352941178
2025-10-15T19:34:03.484182,31.366412213740457,11.854961832061068,1.2442748091603053,0.5219359619140624,-2.1021090576171875,9.751583361816406,28.435882352941178
2025-10-15T19:34:03.504716,45.213740458015266,17.374045801526716,-1.3282442748091603,1.8243816650390623,-1.35990654296875,10.314220751953124,28.435882352941178
2025-10-15T19:34:03.522084,53.00763358778626,23.801526717557252,-2.351145038167939,1.4125789794921875,-0.737414111328125,10.527304699707031,28.48294117647059
2025-10-15T19:34:03.544085,61.152671755725194,26.27480916030534,-4.9465648854961835,1.5753846923828123,-0.8499415893554687,9.995791931152343,28.388823529411766
2025-10-15T19:34:03.565274,63.770992366412216,25.282442748091604,-5.458015267175573,0.4836287353515625,-1.3024457031249999,8.853757739257812,28.48294117647059
2025-10-15T19:34:03.582209,70.31297709923665,20.213740458015266,-7.580152671755725,1.369483349609375,-0.3136404174804687,10.168174450683592,28.435882352941178
2025-10-15T19:34:03.604035,70.32824427480917,24.946564885496183,-5.648854961832061,1.254561669921875,-1.886630908203125,9.370905297851563,28.435882352941178
2025-10-15T19:34:03.626339,80.83969465648855,32.48091603053435,-9.98473282442748,0.7422025146484375,-1.6519991455078125,8.947131604003905,28.388823529411766
2025-10-15T19:34:03.643274,83.09160305343511,29.732824427480917,-13.17557251908397,0.17477672119140625,-0.6416460449218749,8.664615808105468,28.435882352941178
2025-10-15T19:34:03.665372,81.46564885496183,26.213740458015266,-14.206106870229007,0.4261678955078125,0.15322890625,8.078036401367187,28.388823529411766
2025-10-15T19:34:03.686579,80.2824427480916,26.755725190839694,-15.740458015267176,-0.06464344482421874,-0.5985504150390625,8.82263311767578,28.48294117647059
2025-10-15T19:34:03.703533,74.55725190839695,29.96946564885496,-15.603053435114504,0.5219359619140624,1.0103531005859374,8.303091357421874,28.435882352941178
2025-10-15T19:34:03.725674,69.57251908396947,30.137404580152673,-14.725190839694656,-1.1563994018554686,0.0718260498046875,8.14028564453125,28.48294117647059
2025-10-15T19:34:03.747343,62.79389312977099,24.81679389312977,-13.305343511450381,0.40940848388671874,1.8602946899414061,8.243236315917969,28.388823529411766
2025-10-15T19:34:03.764242,47.31297709923664,21.404580152671755,-12.305343511450381,0.41898529052734373,0.7805097412109374,6.763619689941406,28.48294117647059
2025-10-15T19:34:03.786191,40.14503816793893,18.61832061068702,-12.007633587786259,-0.2825157958984375,0.8930372192382812,8.542511523437499,28.48294117647059
2025-10-15T19:34:03.808230,24.885496183206108,17.580152671755727,-7.923664122137405,0.507570751953125,0.852335791015625,7.635109094238281,28.48294117647059
2025-10-15T19:34:03.825143,13.541984732824428,8.122137404580153,-4.587786259541985,-0.15322890625,3.5577836669921874,7.41244833984375,28.435882352941178
2025-10-15T19:34:03.847120,-0.183206106870229,8.045801526717558,-1.7251908396946565,1.1156979736328125,2.612074011230469,8.262389929199218,28.435882352941178
2025-10-15T19:34:03.869594,-15.404580152671755,1.1450381679389312,1.6717557251908397,0.4381389038085937,2.559401574707031,9.07163009033203,28.341764705882355
2025-10-15T19:34:03.886478,-32.31297709923664,-4.251908396946565,5.908396946564886,-0.0047884033203125,1.8459294799804686,8.33182177734375,28.48294117647059
2025-10-15T19:34:03.908764,-43.80916030534351,-6.763358778625954,9.19083969465649,-0.0143652099609375,1.9033903198242186,7.060500695800781,28.435882352941178
2025-10-15T19:34:03.931980,-57.50381679389313,-14.816793893129772,13.511450381679388,-0.05746083984375,1.8028338500976562,7.967903124999999,28.435882352941178
2025-10-15T19:34:03.948837,-69.76335877862596,-19.374045801526716,16.19083969465649,-0.239420166015625,1.8842367065429686,8.568847741699217,28.435882352941178
2025-10-15T19:34:03.970512,-76.90839694656489,-19.61832061068702,18.47328244274809,0.39983167724609375,1.9919757812499999,8.535328918457031,28.435882352941178
2025-10-15T19:34:03.994603,-87.06106870229007,-28.374045801526716,20.068702290076335,-0.15322890625,1.2210428466796874,8.762778076171875,28.48294117647059
2025-10-15T19:34:04.011498,-92.49618320610686,-30.198473282442748,20.38167938931298,-0.1580173095703125,1.3455413330078123,9.368511096191405,28.435882352941178
2025-10-15T19:34:04.033636,-95.47328244274809,-30.984732824427482,20.458015267175572,0.1388636962890625,1.1755530151367186,9.126696728515624,28.48294117647059
2025-10-15T19:34:04.056864,-96.83206106870229,-33.595419847328245,19.595419847328245,0.49320554199218747,1.209071838378906,8.911218579101561,28.388823529411766
2025-10-15T19:34:04.073753,-92.34351145038168,-34.76335877862596,16.793893129770993,0.612915625,0.18435352783203124,10.12507882080078,28.435882352941178
2025-10-15T19:34:04.095450,-88.7175572519084,-32.33587786259542,15.793893129770993,0.1292868896484375,-0.23223756103515625,9.636661682128906,28.388823529411766
2025-10-15T19:34:04.118905,-85.73282442748092,-33.80916030534351,14.16030534351145,-0.13407529296874998,-0.02154781494140625,9.315838659667968,28.48294117647059
2025-10-15T19:34:04.135872,-71.99236641221374,-31.83206106870229,10.206106870229007,1.1013327636718748,-2.4684219116210935,11.417947717285156,28.294705882352943
2025-10-15T19:34:04.156636,-59.847328244274806,-28.740458015267176,10.221374045801527,2.834734765625,-3.239354846191406,10.328585961914062,28.48294117647059
2025-10-15T19:34:04.179582,-50.69465648854962,-28.267175572519083,11.549618320610687,-2.272097375488281,-3.4763808105468748,8.157045056152343,28.435882352941178
2025-10-15T19:34:04.198435,-32.33587786259542,-27.801526717557252,9.946564885496183,0.8690952026367187,-3.3686417358398435,9.8449572265625,28.388823529411766
2025-10-15T19:34:04.218696,-18.99236641221374,-16.717557251908396,6.557251908396947,1.5921441040039062,-2.806004345703125,10.043675964355469,28.388823529411766
2025-10-15T19:34:04.241232,-2.015267175572519,-14.80916030534351,6.442748091603053,0.3184288208007812,-3.5769372802734374,9.325415466308593,28.435882352941178
2025-10-15T19:34:04.259830,17.38167938931298,-10.625954198473282,2.3435114503816794,0.5722141967773438,-1.678335363769531,9.952696301269532,28.435882352941178
2025-10-15T19:34:04.278920,31.015267175572518,-2.7938931297709924,0.6412213740458015,0.17238251953125,-3.6679169433593746,9.76116016845703,28.388823529411766
2025-10-15T19:34:04.301326,52.33587786259542,3.5267175572519083,-4.3893129770992365,0.33518823242187495,-2.0278888061523435,9.368511096191405,28.435882352941178
2025-10-15T19:34:04.320365,68.3206106870229,6.099236641221374,-6.473282442748092,0.15562310791015624,-1.7525556152343749,9.890447058105469,28.341764705882355
2025-10-15T19:34:04.339035,79.09160305343511,9.67175572519084,-7.931297709923665,0.28969840087890625,-0.4213794921875,10.457872851562499,28.435882352941178
2025-10-15T19:34:04.361546,88.91603053435115,13.854961832061068,-10.67175572519084,0.6392518432617187,-0.9600748657226562,10.450690246582031,28.48294117647059
2025-10-15T19:34:04.381428,96.80916030534351,18.221374045801525,-11.34351145038168,0.354341845703125,0.3184288208007812,10.54645831298828,28.48294117647059
2025-10-15T19:34:04.399270,94.2442748091603,25.328244274809162,-11.770992366412214,0.8044517578125,1.1707646118164061,10.627861169433594,28.48294117647059
2025-10-15T19:34:04.421795,82.72519083969466,23.595419847328245,-9.51908396946565,2.0183119995117185,2.5953145996093747,9.64623848876953,28.388823529411766
2025-10-15T19:34:04.442530,75.87022900763358,19.14503816793893,-8.13740458015267,0.040701428222656245,-0.45489831542968745,9.327809667968749,28.48294117647059
2025-10-15T19:34:04.459761,64.02290076335878,22.442748091603054,-7.526717557251908,0.3950432739257812,0.9624690673828125,10.417171423339843,28.435882352941178
2025-10-15T19:34:04.481652,62.00763358778626,32.10687022900763,-8.076335877862595,-0.201112939453125,0.7206546997070312,9.660603698730467,28.341764705882355
2025-10-15T19:34:04.503249,53.25954198473283,28.19083969465649,-5.351145038167939,0.1005564697265625,2.01112939453125,8.82981572265625,28.388823529411766
2025-10-15T19:34:04.520178,43.35114503816794,24.49618320610687,-5.106870229007634,0.5123591552734374,0.7661445312499999,8.786720092773438,28.435882352941178
2025-10-15T19:34:04.542122,32.717557251908396,22.6793893129771,-3.351145038167939,0.6631938598632812,0.7517793212890624,9.045293872070312,28.435882352941178
2025-10-15T19:34:04.564145,26.68702290076336,26.358778625954198,-2.954198473282443,0.42377369384765623,1.448492004394531,9.591171850585937,28.435882352941178
2025-10-15T19:34:04.581230,14.740458015267176,26.938931297709924,-0.32061068702290074,1.879448303222656,1.6472107421875,9.406818322753905,28.53
2025-10-15T19:34:04.603292,5.106870229007634,23.80916030534351,0.6259541984732825,2.0063409912109376,1.1085153686523437,6.924031201171875,28.294705882352943
2025-10-15T19:34:04.626246,1.3282442748091603,22.709923664122137,0.7251908396946565,3.318363500976562,2.1164742675781247,9.923965881347655,28.388823529411766
2025-10-15T19:34:04.643168,-16.267175572519083,18.022900763358777,3.267175572519084,0.5817910034179687,0.41898529052734373,8.712499841308594,28.53
2025-10-15T19:34:04.665321,-19.198473282442748,20.893129770992367,5.7251908396946565,0.5746083984375,2.0781670410156248,8.020575561523437,28.48294117647059
2025-10-15T19:34:04.688768,-29.480916030534353,13.358778625954198,6.442748091603053,-1.1468225952148436,0.33758243408203126,7.635109094238281,28.48294117647059
2025-10-15T19:34:04.706168,-29.984732824427482,3.0610687022900764,5.824427480916031,-1.0007762939453124,-0.9864110839843749,7.692569934082031,28.435882352941178
2025-10-15T19:34:04.727262,-33.32824427480916,-1.1297709923664123,6.00763358778626,0.3711012573242187,-0.7326257080078125,7.4028715332031245,28.48294117647059
2025-10-15T19:34:04.750478,-36.47328244274809,-2.0839694656488548,5.648854961832061,0.8643067993164062,-0.20829554443359374,7.7979148071289055,28.388823529411766
2025-10-15T19:34:04.767825,-36.70229007633588,-12.938931297709924,3.9618320610687023,0.2154781494140625,0.3854664672851562,8.374917407226562,28.48294117647059
2025-10-15T19:34:04.788480,-39.42748091603053,-15.916030534351146,6.595419847328245,0.07422025146484375,0.7781155395507812,8.307879760742187,28.435882352941178
2025-10-15T19:34:04.811692,-42.17557251908397,-15.870229007633588,6.7251908396946565,0.2705447875976562,0.26336218261718747,8.17141026611328,28.53
2025-10-15T19:34:04.829923,-44.229007633587784,-21.045801526717558,7.259541984732825,1.5562310791015623,1.2234370483398436,7.8529814453124995,28.388823529411766
2025-10-15T19:34:04.849693,-46.47328244274809,-26.740458015267176,7.343511450381679,-0.2561795776367187,0.469263525390625,8.20971749267578,28.435882352941178
2025-10-15T19:34:04.872438,-49.87022900763359,-22.755725190839694,8.259541984732824,-0.8810662109374999,2.5546131713867184,8.954314208984375,28.435882352941178
2025-10-15T19:34:04.891084,-53.86259541984733,-26.50381679389313,9.763358778625955,0.8882488159179687,0.26815058593749996,9.217676391601563,28.388823529411766
2025-10-15T19:34:04.910374,-53.534351145038165,-29.908396946564885,9.687022900763358,0.28012159423828126,0.16280571289062498,9.392453112792968,28.388823529411766
2025-10-15T19:34:04.933264,-53.83969465648855,-26.33587786259542,7.038167938931298,1.465251416015625,0.4860229370117187,9.945513696289062,28.388823529411766
2025-10-15T19:34:04.952797,-53.80152671755725,-29.564885496183205,7.786259541984733,1.3215993164062498,-0.2346317626953125,9.418789331054686,28.388823529411766
2025-10-15T19:34:04.971720,-54.06106870229008,-28.641221374045802,7.534351145038168,-0.4572925170898437,0.21308394775390624,10.627861169433594,28.341764705882355
2025-10-15T19:34:04.993911,-49.732824427480914,-26.267175572519083,5.526717557251908,0.14125789794921875,-2.798821740722656,9.567229833984374,28.48294117647059
2025-10-15T19:34:05.014229,-49.99236641221374,-23.702290076335878,7.427480916030534,-0.24660277099609373,-1.1228805786132812,9.435548742675781,28.435882352941178
2025-10-15T19:34:05.031574,-39.534351145038165,-19.83206106870229,7.00763358778626,0.21787235107421873,-1.4030021728515625,9.718064538574218,28.388823529411766
2025-10-15T19:34:05.053659,-35.38167938931298,-16.84732824427481,7.106870229007634,0.1149216796875,-2.114080065917969,10.398017810058594,28.435882352941178
2025-10-15T19:34:05.074808,-31.091603053435115,-15.98473282442748,6.1603053435114505,2.1739351074218747,-1.9009961181640624,10.05564697265625,28.48294117647059
2025-10-15T19:34:05.091703,-20.396946564885496,-9.816793893129772,4.580152671755725,1.2713210815429687,-0.8020575561523438,9.478644372558593,28.577058823529413
2025-10-15T19:34:05.113578,-11.618320610687023,-3.267175572519084,3.1297709923664123,2.0183119995117185,-2.6862942626953124,8.992621435546875,28.48294117647059
2025-10-15T19:34:05.135602,7.122137404580153,-2.0763358778625953,1.3740458015267176,1.1348515869140625,-0.05746083984375,11.183315954589844,28.48294117647059
2025-10-15T19:34:05.152558,15.427480916030534,0.5343511450381679,-2.4198473282442747,2.5809493896484375,-3.0119056884765625,8.755595471191405,28.53
2025-10-15T19:34:05.174603,41.19083969465649,7.351145038167939,-6.129770992366412,0.35673604736328124,-2.0159177978515626,10.548852514648438,28.388823529411766
2025-10-15T19:34:05.197572,51.030534351145036,9.870229007633588,-8.450381679389313,-0.08140285644531249,-0.3064578125,9.253589416503905,28.388823529411766
2025-10-15T19:34:05.214472,75.44274809160305,9.091603053435115,-13.84732824427481,0.4477157104492187,-1.5897499023437498,10.8409451171875,28.435882352941178
2025-10-15T19:34:05.236482,76.82442748091603,13.709923664122137,-15.045801526717558,1.5179238525390624,-0.842758984375,10.448296044921875,28.53
2025-10-15T19:34:05.259652,83.74809160305344,19.259541984732824,-14.908396946564885,2.2768857788085937,0.1484405029296875,10.955866796875,28.48294117647059
2025-10-15T19:34:05.276551,76.5114503816794,21.435114503816795,-13.045801526717558,0.38786066894531246,0.4429273071289062,9.595960253906249,28.435882352941178
2025-10-15T19:34:05.298066,72.14503816793894,18.82442748091603,-12.206106870229007,0.8403647827148437,0.5267243652343749,10.939107385253905,28.48294117647059
2025-10-15T19:34:05.321365,61.17557251908397,14.572519083969466,-11.595419847328245,-0.7158662963867187,-0.36391865234375,8.585607153320312,28.388823529411766
2025-10-15T19:34:05.338261,62.267175572519086,23.862595419847327,-11.312977099236642,-0.3447650390625,0.6512228515624999,11.257536206054686,28.435882352941178
2025-10-15T19:34:05.358896,51.36641221374046,28.72519083969466,-8.961832061068701,1.158793603515625,1.9919757812499999,10.704475622558594,28.48294117647059
2025-10-15T19:34:05.381947,48.89312977099237,33.30534351145038,-11.076335877862595,1.4053963745117186,0.565031591796875,9.782707983398437,28.53
2025-10-15T19:34:05.399757,35.25954198473283,24.18320610687023,-8.129770992366412,0.3016694091796875,0.737414111328125,9.279925634765624,28.435882352941178
2025-10-15T19:34:05.419628,35.06106870229008,27.862595419847327,-7.862595419847328,0.48123453369140623,1.2114660400390624,10.194510668945313,28.48294117647059
2025-10-15T19:34:05.442138,24.595419847328245,28.83206106870229,-7.099236641221374,1.0414777221679687,0.8188169677734375,9.138667736816405,28.388823529411766
2025-10-15T19:34:05.460347,22.770992366412212,33.02290076335878,-6.541984732824427,0.3687070556640625,0.6631938598632812,8.355763793945313,28.388823529411766
2025-10-15T19:34:05.479759,16.48854961832061,22.229007633587788,-5.5038167938931295,0.33039982910156246,0.7948749511718749,8.164227661132813,28.435882352941178
2025-10-15T19:34:05.502204,9.435114503816793,19.00763358778626,-4.770992366412214,0.3711012573242187,0.8690952026367187,7.9295958984374995,28.435882352941178
2025-10-15T19:34:05.520775,3.4122137404580153,15.702290076335878,-4.0458015267175576,0.34237083740234375,0.603338818359375,8.99501563720703,28.435882352941178
2025-10-15T19:34:05.539780,-1.251908396946565,20.19083969465649,-2.1297709923664123,0.14604630126953125,0.9433154541015625,7.960720520019531,28.435882352941178
2025-10-15T19:34:05.562272,-9.183206106870228,13.83969465648855,-0.9236641221374046,0.39743747558593745,0.9217676391601562,7.4603323730468745,28.435882352941178
2025-10-15T19:34:05.581291,-18.114503816793892,7.702290076335878,1.4351145038167938,0.06703764648437499,1.0271125122070313,7.762001782226562,28.53
2025-10-15T19:34:05.599959,-25.244274809160306,4.396946564885496,3.4427480916030535,0.23702596435546874,0.7852981445312499,8.659827404785156,28.48294117647059
2025-10-15T19:34:05.622212,-32.61068702290076,3.145038167938931,5.244274809160306,-0.011971008300781249,1.024718310546875,8.027758166503906,28.48294117647059
2025-10-15T19:34:05.641657,-41.2442748091603,-1.8931297709923665,6.862595419847328,-0.24181436767578124,1.3263877197265623,7.110778930664062,28.294705882352943
2025-10-15T19:34:05.659841,-48.51145038167939,-9.50381679389313,8.778625954198473,-0.11013327636718749,0.9744400756835937,8.224082702636718,28.388823529411766
2025-10-15T19:34:05.681842,-55.3206106870229,-12.068702290076336,10.312977099236642,-0.03591302490234375,1.2473790649414063,8.497021691894531,28.435882352941178
2025-10-15T19:34:05.702140,-60.89312977099237,-14.061068702290076,11.244274809160306,-0.062249243164062495,1.158793603515625,7.838616235351562,28.435882352941178
2025-10-15T19:34:05.719655,-67.10687022900764,-21.625954198473284,12.274809160305344,-0.0430956298828125,1.6232687255859375,7.264007836914062,28.341764705882355
2025-10-15T19:34:05.742259,-72.19083969465649,-25.076335877862597,10.17557251908397,0.12689268798828124,1.915361328125,9.023746057128905,28.388823529411766
2025-10-15T19:34:05.763590,-80.78625954198473,-28.251908396946565,13.900763358778626,1.0869675537109373,2.39420166015625,8.56166513671875,28.388823529411766
2025-10-15T19:34:05.780540,-86.93893129770993,-36.67175572519084,12.854961832061068,-0.7805097412109374,2.559401574707031,8.348581188964843,28.388823529411766
2025-10-15T19:34:05.802960,-96.6793893129771,-38.54961832061068,12.022900763358779,-0.08140285644531249,1.43652099609375,9.299079248046874,28.48294117647059
2025-10-15T19:34:05.824710,-93.49618320610686,-35.83969465648855,8.50381679389313,0.6919242797851562,1.1635820068359375,8.853757739257812,28.48294117647059
2025-10-15T19:34:05.841736,-101.58015267175573,-36.30534351145038,6.450381679389313,-0.11252747802734374,0.4860229370117187,8.06367119140625,28.388823529411766
2025-10-15T19:34:05.864052,-95.44274809160305,-39.030534351145036,1.9923664122137406,0.9002198242187499,-0.3184288208007812,9.698910925292969,28.48294117647059
2025-10-15T19:34:05.886257,-86.5114503816794,-26.748091603053435,-0.6564885496183206,0.5961562133789062,-2.8730419921875,9.64623848876953,28.48294117647059
2025-10-15T19:34:05.903243,-66.19847328244275,-26.96946564885496,-1.1908396946564885,0.49320554199218747,-1.9656395629882812,6.962338427734375,28.388823529411766
2025-10-15T19:34:05.925798,-51.725190839694655,-29.137404580152673,-2.404580152671756,-0.9792284790039062,-1.6400281372070311,7.252036828613281,28.48294117647059
2025-10-15T19:34:05.948914,-28.717557251908396,-26.931297709923665,-4.236641221374046,2.365471240234375,-2.4253262817382812,10.692504614257812,28.435882352941178
2025-10-15T19:34:05.965822,-6.450381679389313,-11.580152671755725,-8.419847328244275,1.7884686401367187,-2.849099975585937,8.796296899414061,28.388823529411766
2025-10-15T19:34:05.988357,6.961832061068702,-12.236641221374045,-9.206106870229007,2.7940333374023436,-4.055777612304687,9.543287817382812,28.435882352941178
2025-10-15T19:34:06.012016,30.366412213740457,-9.98473282442748,-12.618320610687023,2.3415292236328122,-3.038241906738281,10.716446630859375,28.48294117647059
2025-10-15T19:34:06.028890,48.99236641221374,4.450381679389313,-14.80916030534351,1.3838485595703125,-3.5098996337890624,10.081983190917969,28.435882352941178
2025-10-15T19:34:06.050051,67.6412213740458,9.709923664122137,-15.702290076335878,1.005564697265625,-3.162740393066406,10.309432348632813,28.48294117647059
2025-10-15T19:34:06.073213,80.45038167938931,8.98473282442748,-20.14503816793893,0.6416460449218749,-2.2074539306640624,10.096348400878906,28.48294117647059
2025-10-15T19:34:06.090555,99.74809160305344,16.702290076335878,-23.03053435114504,1.0510545288085937,-2.310404602050781,10.51533369140625,28.388823529411766
2025-10-15T19:34:06.110809,109.79389312977099,21.15267175572519,-26.12213740458015,0.9002198242187499,-1.7812860351562498,9.272743029785156,28.388823529411766
2025-10-15T19:34:06.133737,120.29007633587786,21.946564885496183,-28.427480916030536,1.2234370483398436,-1.0103531005859374,9.97903251953125,28.48294117647059
2025-10-15T19:34:06.151910,125.0,23.091603053435115,-29.99236641221374,1.01514150390625,0.0,9.842563024902343,28.435882352941178
2025-10-15T19:34:06.171405,118.82442748091603,31.625954198473284,-27.748091603053435,1.0749965454101562,2.157175695800781,12.064382165527343,28.435882352941178
2025-10-15T19:34:06.196570,104.02290076335878,18.84732824427481,-25.84732824427481,0.9361328491210937,1.2737152832031249,8.559270935058594,28.435882352941178
2025-10-15T19:34:06.213817,88.54198473282443,23.595419847328245,-22.87786259541985,1.4030021728515625,1.3814543579101561,11.389217297363281,28.435882352941178
2025-10-15T19:34:06.236200,82.90076335877863,30.221374045801525,-21.87786259541985,0.28012159423828126,1.3120225097656248,10.079588989257813,28.388823529411766
2025-10-15T19:34:06.259138,70.87022900763358,31.85496183206107,-19.793893129770993,1.43652099609375,1.455674609375,10.371681591796875,28.48294117647059
2025-10-15T19:34:06.276000,54.98473282442748,27.099236641221374,-19.083969465648856,1.678335363769531,1.3670891479492187,8.968679418945312,28.48294117647059
2025-10-15T19:34:06.297713,44.3206106870229,25.702290076335878,-16.480916030534353,2.8993782104492185,0.9792284790039062,9.519345800781249,28.48294117647059
2025-10-15T19:34:06.320811,23.80916030534351,26.297709923664122,-14.045801526717558,3.4811692138671875,1.7429788085937499,11.027692846679686,28.435882352941178
2025-10-15T19:34:06.337657,11.885496183206106,27.900763358778626,-12.786259541984732,0.8714894042968749,1.8315642700195311,11.075576879882812,28.388823529411766
2025-10-15T19:34:06.358886,-5.419847328244275,33.16793893129771,-11.580152671755725,1.0989385620117187,1.158793603515625,8.635885388183594,28.388823529411766
2025-10-15T19:34:06.381768,-17.83206106870229,28.893129770992367,-6.793893129770993,1.199495031738281,2.427720483398437,8.394071020507813,28.53
2025-10-15T19:34:06.398632,-37.19847328244275,20.0,-4.801526717557252,0.28969840087890625,2.0566192260742184,8.425195642089843,28.388823529411766
2025-10-15T19:34:06.420893,-45.58015267175573,19.18320610687023,-2.4885496183206106,0.6272808349609375,2.360682836914062,8.59997236328125,28.388823529411766
2025-10-15T19:34:06.444360,-60.41984732824427,17.229007633587788,-1.015267175572519,0.6847416748046875,1.8818425048828125,7.551312036132812,28.388823529411766
2025-10-15T19:34:06.461244,-60.81679389312977,14.877862595419847,0.8549618320610687,-0.24660277099609373,0.9504980590820312,7.888894470214844,28.341764705882355
2025-10-15T19:34:06.482105,-66.29770992366412,9.412213740458014,1.3282442748091603,-0.5363011718749999,1.5873557006835937,6.4643444824218745,28.48294117647059
2025-10-15T19:34:06.505018,-78.79389312977099,-4.175572519083969,1.916030534351145,-0.229843359375,1.0103531005859374,7.687781530761718,28.53
2025-10-15T19:34:06.522394,-81.10687022900764,-6.404580152671755,2.366412213740458,0.00718260498046875,0.7398083129882812,8.566453540039062,28.48294117647059
2025-10-15T19:34:06.542916,-87.5114503816794,-5.465648854961832,2.7480916030534353,-0.4740519287109375,1.3623007446289062,7.60398447265625,28.48294117647059
2025-10-15T19:34:06.565883,-89.2824427480916,-12.946564885496183,1.0687022900763359,-2.094926452636719,1.0821791503906248,6.842628344726562,28.388823529411766
2025-10-15T19:34:06.584106,-96.46564885496183,-22.580152671755727,1.4427480916030535,-0.679953271484375,0.7924807495117187,8.034940771484374,28.435882352941178
2025-10-15T19:34:06.603702,-95.78625954198473,-22.53435114503817,-0.25190839694656486,-0.842758984375,1.1563994018554686,8.449137658691406,28.48294117647059
2025-10-15T19:34:06.626091,-100.07633587786259,-23.564885496183205,-0.4198473282442748,-0.5027823486328125,1.01514150390625,7.898471276855468,28.435882352941178
2025-10-15T19:34:06.645124,-90.83969465648855,-29.82442748091603,-6.244274809160306,-1.218648645019531,-0.7805097412109374,7.359775903320312,28.435882352941178
2025-10-15T19:34:06.663797,-85.40458015267176,-32.05343511450382,-6.694656488549619,-0.3854664672851562,-0.9959878906249999,8.872911352539061,28.53
2025-10-15T19:34:06.686310,-80.45801526717557,-33.16030534351145,-9.709923664122137,-0.5865794067382812,0.0047884033203125,9.066841687011719,28.435882352941178
2025-10-15T19:34:06.706188,-65.57251908396947,-33.45038167938932,-12.763358778625955,-1.1947066284179686,-0.8547299926757812,8.911218579101561,28.388823529411766
2025-10-15T19:34:06.724136,-54.732824427480914,-38.25954198473283,-16.053435114503817,0.11252747802734374,-0.8786720092773437,9.919177478027343,28.53
2025-10-15T19:34:06.746080,-39.98473282442748,-28.328244274809162,-19.297709923664122,-1.3910311645507811,-3.5793314819335937,8.621520178222656,28.341764705882355
2025-10-15T19:34:06.766798,-27.198473282442748,-28.46564885496183,-18.27480916030534,0.6607996582031249,-1.4508862060546874,9.694122521972655,28.435882352941178
2025-10-15T19:34:06.783709,-6.190839694656488,-31.442748091603054,-20.763358778625953,0.05027823486328125,-3.5865140869140624,9.052476477050782,28.388823529411766
2025-10-15T19:34:06.805520,4.396946564885496,-24.85496183206107,-21.763358778625953,0.7158662963867187,-4.297591979980469,8.695740429687499,28.48294117647059
2025-10-15T19:34:06.826678,28.519083969465647,-22.16793893129771,-19.65648854961832,2.1356278808593747,-4.819527941894531,10.625466967773438,28.48294117647059
2025-10-15T19:34:06.843567,47.969465648854964,-19.938931297709924,-23.022900763358777,1.197100830078125,-3.835511059570312,9.217676391601563,28.388823529411766
2025-10-15T19:34:06.865490,67.57251908396947,-18.17557251908397,-24.763358778625953,1.3766659545898436,-3.5865140869140624,8.997409838867187,28.48294117647059
2025-10-15T19:34:06.887486,90.44274809160305,-13.129770992366412,-27.862595419847327,1.8914193115234375,-3.1411925781249996,9.545682019042967,28.388823529411766
2025-10-15T19:34:06.904368,110.33587786259542,-10.374045801526718,-28.954198473282442,1.927332336425781,-2.473210314941406,9.935936889648437,28.435882352941178
2025-10-15T19:34:06.926391,123.70229007633588,-7.557251908396947,-30.198473282442748,1.6615759521484375,-1.3718775512695311,10.615890161132812,28.435882352941178
2025-10-15T19:34:06.949312,132.29007633587787,-1.3053435114503817,-29.69465648854962,1.4963760375976562,-0.2537853759765625,10.019733947753906,28.435882352941178
2025-10-15T19:34:06.966205,134.0,3.5572519083969465,-29.129770992366414,1.1013327636718748,0.8283937744140625,12.746729638671875,28.435882352941178
2025-10-15T19:34:06.988175,130.8091603053435,8.84732824427481,-28.557251908396946,0.07422025146484375,2.2768857788085937,10.86009873046875,28.341764705882355
2025-10-15T19:34:07.011439,106.3969465648855,16.17557251908397,-20.69465648854962,1.3718775512695311,0.15322890625,10.915165368652342,28.48294117647059
2025-10-15T19:34:07.028319,101.6030534351145,19.46564885496183,-20.27480916030534,0.7589619262695312,1.1013327636718748,8.8489693359375,28.388823529411766
2025-10-15T19:34:07.049494,85.7557251908397,17.435114503816795,-16.045801526717558,1.2018892333984375,1.7980454467773437,10.417171423339843,28.388823529411766
2025-10-15T19:34:07.072389,67.33587786259542,19.770992366412212,-12.458015267175572,0.4165910888671875,2.1715409057617188,10.563217724609375,28.435882352941178
2025-10-15T19:34:07.089265,42.19083969465649,30.625954198473284,-10.206106870229007,1.9728221679687499,1.8148048583984373,10.36210478515625,28.48294117647059
2025-10-15T19:34:07.109896,30.48854961832061,33.31297709923664,-6.969465648854962,1.0199299072265624,2.7174188842773437,10.596736547851561,28.435882352941178
2025-10-15T19:34:07.132601,11.50381679389313,39.62595419847328,-4.801526717557252,1.0031704956054688,2.2457611572265623,10.864887133789061,28.435882352941178
2025-10-15T19:34:07.149937,-10.404580152671755,38.45038167938932,-1.251908396946565,1.7908628417968748,2.310404602050781,9.727641345214844,28.435882352941178
2025-10-15T19:34:07.170163,-24.396946564885496,40.61068702290076,1.6030534351145038,-0.14125789794921875,2.729389892578125,10.12507882080078,28.435882352941178
2025-10-15T19:34:07.193415,-40.770992366412216,39.87022900763359,5.183206106870229,1.1923124267578125,2.583343591308594,9.466673364257812,28.435882352941178
2025-10-15T19:34:07.211574,-53.70229007633588,42.229007633587784,7.8320610687022905,1.120486376953125,1.9608511596679685,8.93755479736328,28.48294117647059
2025-10-15T19:34:07.232016,-56.89312977099237,37.61832061068702,10.893129770992367,-0.16759411621093748,2.4444798950195312,8.039729174804688,28.388823529411766
2025-10-15T19:34:07.254693,-62.603053435114504,34.62595419847328,13.083969465648854,-0.5602431884765625,2.0446482177734375,7.771578588867187,28.341764705882355
2025-10-15T19:34:07.273350,-71.12213740458016,25.595419847328245,15.236641221374045,-0.23223756103515625,1.5705962890624998,7.292738256835937,28.294705882352943
2025-10-15T19:34:07.292559,-69.26717557251908,20.33587786259542,17.977099236641223,-0.6727706665039062,1.1731588134765625,8.169016064453125,28.388823529411766
2025-10-15T19:34:07.315183,-84.65648854961832,16.717557251908396,19.33587786259542,-1.2018892333984375,1.6639701538085936,7.5537062377929685,28.53
2025-10-15T19:34:07.334288,-84.42748091603053,13.351145038167939,18.900763358778626,-0.6392518432617187,0.373495458984375,8.336610180664062,28.388823529411766
2025-10-15T19:34:07.353078,-92.49618320610686,9.801526717557252,18.916030534351144,-0.9744400756835937,1.3742717529296875,7.56567724609375,28.388823529411766
2025-10-15T19:34:07.375872,-93.76335877862596,2.2061068702290076,17.19083969465649,-1.22583125,-0.9911994873046874,6.89530078125,28.388823529411766
2025-10-15T19:34:07.395417,-85.61068702290076,-0.7709923664122137,12.511450381679388,-0.9792284790039062,0.9744400756835937,8.2743609375,28.435882352941178
2025-10-15T19:34:07.414700,-82.31297709923665,-4.297709923664122,10.404580152671755,-0.6679822631835937,0.29927520751953124,7.994239343261718,28.435882352941178
2025-10-15T19:34:07.437387,-82.9618320610687,-8.557251908396946,8.763358778625955,-1.1180921752929687,-0.6679822631835937,7.343016491699219,28.48294117647059
2025-10-15T19:34:07.456051,-71.41221374045801,-14.053435114503817,3.4885496183206106,-0.3495534423828125,-0.3711012573242187,8.475473876953124,28.48294117647059
2025-10-15T19:34:07.476152,-66.12977099236642,-17.83969465648855,0.8625954198473282,-0.5602431884765625,-1.0462661254882812,8.202534887695313,28.388823529411766
2025-10-15T19:34:07.498990,-55.79389312977099,-20.17557251908397,-4.0,-0.6248866333007812,-0.928950244140625,7.788338000488281,28.435882352941178
2025-10-15T19:34:07.516768,-42.14503816793893,-24.984732824427482,-7.435114503816794,-0.21308394775390624,-2.1643583007812497,7.934384301757812,28.435882352941178
2025-10-15T19:34:07.537319,-31.450381679389313,-28.671755725190838,-11.19083969465649,-0.20829554443359374,-4.240131140136718,7.618349682617187,28.48294117647059
2025-10-15T19:34:07.560087,-22.022900763358777,-27.732824427480917,-14.580152671755725,1.4245499877929686,-1.9704279663085937,8.228871105957031,28.48294117647059
2025-10-15T19:34:07.577846,-6.473282442748092,-31.16030534351145,-14.83969465648855,-0.7852981445312499,0.05027823486328125,9.686939916992188,28.48294117647059
2025-10-15T19:34:07.597748,0.40458015267175573,-29.633587786259543,-16.53435114503817,1.5131354492187499,-2.6384102294921874,10.998962426757812,28.435882352941178
2025-10-15T19:34:07.620229,11.641221374045802,-30.076335877862597,-15.251908396946565,0.8810662109374999,-1.4963760375976562,10.012551342773437,28.435882352941178
2025-10-15T19:34:07.638831,23.984732824427482,-27.984732824427482,-17.076335877862597,1.2138602416992186,-1.3192051147460937,8.437166650390624,28.48294117647059
2025-10-15T19:34:07.657982,31.34351145038168,-26.64885496183206,-17.72519083969466,1.350329736328125,-2.3223756103515623,8.578424548339843,28.48294117647059
2025-10-15T19:34:07.680509,42.14503816793893,-22.702290076335878,-19.267175572519083,0.852335791015625,-0.7948749511718749,9.361328491210937,28.435882352941178
2025-10-15T19:34:07.699955,45.70229007633588,-22.541984732824428,-17.61832061068702,1.2425906616210938,-1.4317325927734375,10.038887561035155,28.48294117647059
2025-10-15T19:34:07.718199,52.30534351145038,-21.49618320610687,-17.519083969465647,0.7541735229492187,-0.8403647827148437,9.277531433105468,28.388823529411766
2025-10-15T19:34:07.740300,58.717557251908396,-17.0381679389313,-19.19083969465649,2.020706201171875,-1.0749965454101562,10.429142431640624,28.341764705882355
2025-10-15T19:34:07.760321,57.87022900763359,-12.229007633587786,-14.870229007633588,1.6065093139648436,-0.36391865234375,9.682151513671874,28.48294117647059
2025-10-15T19:34:07.778159,58.3206106870229,-8.916030534351146,-12.98473282442748,0.7685387329101562,-0.5698199951171875,10.802637890625,28.48294117647059
2025-10-15T19:34:07.800670,54.954198473282446,1.381679389312977,-15.083969465648854,1.0582371337890624,0.1388636962890625,9.457096557617186,28.48294117647059
2025-10-15T19:34:07.820684,58.267175572519086,1.0076335877862594,-11.381679389312977,2.042254016113281,-0.316034619140625,11.999738720703125,28.435882352941178
2025-10-15T19:34:07.839717,53.7557251908397,2.8473282442748094,-8.67175572519084,1.5658078857421873,0.23702596435546874,9.198522778320312,28.53
2025-10-15T19:34:07.862376,57.267175572519086,11.702290076335878,-6.893129770992366,1.0582371337890624,-0.6009446166992187,11.896788049316406,28.388823529411766
2025-10-15T19:34:07.881033,50.404580152671755,13.725190839694656,-4.732824427480916,1.0773907470703123,-0.3280056274414062,9.670180505371093,28.48294117647059
2025-10-15T19:34:07.901184,54.343511450381676,12.702290076335878,-3.4122137404580153,1.9584569580078124,0.02633621826171875,11.027692846679686,28.341764705882355
2025-10-15T19:34:07.923774,44.68702290076336,18.786259541984734,-1.183206106870229,1.388636962890625,0.6105214233398437,9.588777648925781,28.294705882352943
2025-10-15T19:34:07.942379,43.29770992366412,24.061068702290076,-0.8625954198473282,1.8602946899414061,0.19153613281249998,10.149020837402343,28.435882352941178
2025-10-15T19:34:07.961801,37.87022900763359,26.12213740458015,0.4122137404580153,1.120486376953125,0.7302315063476562,9.849745629882811,28.48294117647059
2025-10-15T19:34:07.984344,37.23664122137404,26.328244274809162,0.5572519083969466,0.9217676391601562,0.8092401611328125,10.029310754394531,28.388823529411766
2025-10-15T19:34:08.003797,29.18320610687023,28.50381679389313,1.2061068702290076,0.70868369140625,0.6584054565429687,9.595960253906249,28.48294117647059
2025-10-15T19:34:08.022210,23.977099236641223,30.763358778625953,1.916030534351145,1.7693150268554687,1.946485949707031,9.773131176757811,28.53
2025-10-15T19:34:08.044506,15.15267175572519,31.14503816793893,3.687022900763359,0.34715924072265625,0.07900865478515624,9.830592016601562,28.294705882352943
2025-10-15T19:34:08.064831,7.251908396946565,28.46564885496183,4.778625954198473,1.0510545288085937,1.0845733520507812,9.143456140136719,28.435882352941178
2025-10-15T19:34:08.082276,-7.358778625954199,31.3206106870229,4.641221374045801,-0.009576806640625,1.2593500732421874,9.045293872070312,28.48294117647059
2025-10-15T19:34:08.104160,-13.19083969465649,28.053435114503817,6.793893129770993,1.1923124267578125,1.2880804931640624,8.406042028808594,28.435882352941178
2025-10-15T19:34:08.125300,-29.435114503816795,25.99236641221374,9.618320610687023,-0.01915361328125,1.7453730102539062,8.504204296874999,28.435882352941178
2025-10-15T19:34:08.142150,-42.12977099236641,22.458015267175572,10.900763358778626,-0.4285620971679687,1.16837041015625,7.831433630371094,28.435882352941178
2025-10-15T19:34:08.164058,-52.16030534351145,19.64885496183206,12.633587786259541,0.13168109130859373,1.2808978881835937,7.259219433593749,28.388823529411766
2025-10-15T19:34:08.186044,-57.83969465648855,9.893129770992367,13.83969465648855,0.19153613281249998,2.0781670410156248,7.747636572265624,28.435882352941178
2025-10-15T19:34:08.202911,-69.89312977099236,4.984732824427481,14.312977099236642,0.13407529296874998,1.484405029296875,7.666233715820312,28.435882352941178
2025-10-15T19:34:08.224879,-73.06870229007633,1.5190839694656488,14.251908396946565,0.6823474731445313,1.467645617675781,8.465897070312499,28.341764705882355
2025-10-15T19:34:08.246998,-81.86259541984732,-0.8244274809160306,12.923664122137405,-0.47165772705078124,1.4796166259765624,8.154650854492187,28.48294117647059
2025-10-15T19:34:08.263926,-76.99236641221374,-7.427480916030534,10.122137404580153,-0.7613561279296874,-0.507570751953125,8.106766821289062,28.341764705882355
2025-10-15T19:34:08.286102,-75.3206106870229,-10.305343511450381,8.618320610687023,0.3902548706054687,0.5363011718749999,8.008604553222655,28.53
2025-10-15T19:34:08.306900,-82.22137404580153,-17.435114503816795,6.854961832061068,-0.24181436767578124,1.1133037719726562,8.892064965820312,28.435882352941178
2025-10-15T19:34:08.324779,-72.69465648854961,-16.450381679389313,2.717557251908397,-0.6560112548828124,-1.5873557006835937,7.917624890136718,28.388823529411766
2025-10-15T19:34:08.347138,-63.595419847328245,-21.259541984732824,1.9312977099236641,0.2537853759765625,-0.3016694091796875,8.724470849609375,28.435882352941178
2025-10-15T19:34:08.367946,-60.3587786259542,-24.27480916030534,-3.6717557251908395,0.1149216796875,0.4740519287109375,8.305485559082031,28.388823529411766
2025-10-15T19:34:08.384946,-44.83969465648855,-20.30534351145038,-7.320610687022901,2.2840683837890623,-1.8842367065429686,10.050858569335936,28.53
2025-10-15T19:34:08.407270,-36.091603053435115,-24.557251908396946,-10.854961832061068,1.0175357055664063,-2.887407202148437,9.548076220703125,28.48294117647059
2025-10-15T19:34:08.428951,-25.87786259541985,-24.114503816793892,-11.427480916030534,1.5921441040039062,-2.2553379638671873,11.358092675781249,28.388823529411766
2025-10-15T19:34:08.445855,-13.916030534351146,-23.251908396946565,-13.427480916030534,1.2856862915039062,-1.905784521484375,7.651868505859374,28.435882352941178
2025-10-15T19:34:08.467807,1.9236641221374047,-18.549618320610687,-17.31297709923664,0.5602431884765625,-2.032677209472656,8.973467822265624,28.388823529411766
2025-10-15T19:34:08.489824,16.954198473282442,-19.450381679389313,-18.610687022900763,1.4125789794921875,-5.044582897949218,9.2320416015625,28.435882352941178
2025-10-15T19:34:08.506773,26.236641221374047,-16.106870229007633,-19.72519083969466,-0.36631285400390623,-0.6272808349609375,10.43153663330078,28.388823529411766
2025-10-15T19:34:08.528809,32.81679389312977,-16.931297709923665,-19.885496183206108,2.061407629394531,-0.7015010864257812,10.884040747070312,28.388823529411766
2025-10-15T19:34:08.550829,49.2442748091603,-12.778625954198473,-21.076335877862597,0.6440402465820312,-1.7788918334960937,9.974244116210937,28.435882352941178
2025-10-15T19:34:08.567751,52.11450381679389,-11.916030534351146,-21.977099236641223,0.5602431884765625,-1.7573440185546874,10.038887561035155,28.48294117647059
2025-10-15T19:34:08.589653,59.534351145038165,-9.702290076335878,-22.114503816793892,0.5410895751953124,-0.9504980590820312,10.656591589355468,28.435882352941178
2025-10-15T19:34:08.611673,59.2442748091603,-7.030534351145038,-19.83969465648855,1.5346832641601562,-1.120486376953125,9.641450085449218,28.341764705882355
2025-10-15T19:34:08.628598,56.229007633587784,-2.381679389312977,-15.900763358778626,1.3455413330078123,-0.7158662963867187,11.88721124267578,28.388823529411766
2025-10-15T19:34:08.650513,52.030534351145036,1.4351145038167938,-12.923664122137405,0.9074024291992187,-0.24660277099609373,10.888829150390624,28.48294117647059
2025-10-15T19:34:08.672962,49.58015267175573,0.40458015267175573,-8.335877862595419,1.714248388671875,-1.3120225097656248,11.757924353027343,28.577058823529413
2025-10-15T19:34:08.689941,46.79389312977099,6.198473282442748,-5.267175572519084,1.0486603271484374,-0.21068974609375,9.974244116210937,28.53
2025-10-15T19:34:08.711789,47.79389312977099,10.931297709923664,-3.7480916030534353,0.16519991455078123,-0.3854664672851562,11.298237634277344,28.388823529411766
2025-10-15T19:34:08.734967,41.778625954198475,12.15267175572519,-0.12213740458015267,1.1252747802734375,-0.05985504150390625,9.732429748535155,28.48294117647059
2025-10-15T19:34:08.751925,40.847328244274806,15.786259541984732,0.6946564885496184,0.4429273071289062,0.17238251953125,10.486603271484375,28.435882352941178
2025-10-15T19:34:08.773629,39.74045801526717,17.022900763358777,2.2213740458015265,0.6368576416015624,0.3902548706054687,9.744400756835937,28.48294117647059
2025-10-15T19:34:08.796936,38.05343511450382,19.18320610687023,2.8091603053435112,0.7661445312499999,0.8786720092773437,10.070012182617187,28.435882352941178
2025-10-15T19:34:08.813836,31.068702290076335,19.38167938931298,3.7557251908396947,0.6272808349609375,0.7015010864257812,9.514557397460937,28.388823529411766
2025-10-15T19:34:08.834838,28.587786259541986,21.18320610687023,4.137404580152672,0.6440402465820312,0.5817910034179687,9.804255798339844,28.388823529411766
2025-10-15T19:34:08.857954,21.702290076335878,23.862595419847327,5.465648854961832,0.5770026000976562,0.5147533569335937,9.306261853027344,28.435882352941178
2025-10-15T19:34:08.875325,16.641221374045802,24.251908396946565,4.969465648854962,0.5793968017578125,0.3806780639648437,8.535328918457031,28.388823529411766
2025-10-15T19:34:08.895625,12.099236641221374,22.14503816793893,5.358778625954199,0.4333505004882812,0.4525041137695312,8.461108666992187,28.577058823529413
2025-10-15T19:34:08.918486,8.48091603053435,22.984732824427482,4.740458015267175,0.2561795776367187,0.8403647827148437,8.504204296874999,28.53
2025-10-15T19:34:08.936257,2.145038167938931,22.671755725190838,4.679389312977099,0.488417138671875,0.3902548706054687,8.051700183105469,28.435882352941178
2025-10-15T19:34:08.956141,-1.9083969465648856,20.458015267175572,4.137404580152672,-0.02633621826171875,1.0319009155273438,7.953537915039062,28.48294117647059
2025-10-15T19:34:08.979025,-10.511450381679388,16.213740458015266,3.9083969465648853,-0.00718260498046875,0.028730419921875,7.805097412109374,28.48294117647059
2025-10-15T19:34:08.997978,-10.572519083969466,15.007633587786259,4.282442748091603,-0.41898529052734373,1.5562310791015623,8.020575561523437,28.435882352941178
2025-10-15T19:34:09.017068,-21.46564885496183,10.396946564885496,5.4961832061068705,-0.6967126831054687,0.28012159423828126,7.750030773925781,28.48294117647059
2025-10-15T19:34:09.039564,-21.68702290076336,4.290076335877862,4.427480916030534,1.4245499877929686,2.1906945190429687,8.341398583984375,28.48294117647059
2025-10-15T19:34:09.059015,-38.656488549618324,3.2519083969465647,7.198473282442748,-0.40462008056640625,0.1388636962890625,7.228094812011718,28.435882352941178
2025-10-15T19:34:09.077182,-37.54961832061068,0.816793893129771,5.267175572519084,-0.1292868896484375,2.389413256835937,7.247248425292969,28.53
2025-10-15T19:34:09.099386,-46.404580152671755,-0.549618320610687,3.9618320610687023,0.15562310791015624,1.0773907470703123,8.317456567382813,28.48294117647059
2025-10-15T19:34:09.119731,-47.030534351145036,-5.709923664122138,4.33587786259542,-0.21787235107421873,-0.1005564697265625,8.55448253173828,28.435882352941178
2025-10-15T19:34:09.137101,-54.80916030534351,-9.473282442748092,5.137404580152672,-0.38307226562499996,2.133233679199219,8.863334545898438,28.48294117647059
2025-10-15T19:34:09.159215,-58.61832061068702,-12.427480916030534,3.969465648854962,-0.3495534423828125,2.0278888061523435,8.80347950439453,28.435882352941178
2025-10-15T19:34:09.179943,-67.89312977099236,-15.206106870229007,6.526717557251908,-0.16759411621093748,0.9744400756835937,8.681375219726561,28.435882352941178
2025-10-15T19:34:09.199302,-71.41221374045801,-15.312977099236642,5.717557251908397,0.047884033203124995,0.16280571289062498,10.283096130371094,28.435882352941178
2025-10-15T19:34:09.223049,-74.05343511450381,-18.27480916030534,4.66412213740458,-0.22266075439453123,0.9074024291992187,9.777919580078125,28.341764705882355
2025-10-15T19:34:09.244632,-76.03053435114504,-18.19083969465649,4.183206106870229,-1.4628572143554686,-0.016759411621093748,10.20169327392578,28.48294117647059
2025-10-15T19:34:09.261586,-77.19847328244275,-19.53435114503817,3.9923664122137406,0.8690952026367187,0.928950244140625,10.242394702148436,28.48294117647059
2025-10-15T19:34:09.283622,-83.6793893129771,-19.022900763358777,4.030534351145038,-2.003946789550781,-4.735730883789063,6.782773303222656,28.388823529411766
2025-10-15T19:34:09.305650,-53.900763358778626,-14.129770992366412,-4.366412213740458,0.5386953735351562,-1.6352397338867186,11.487379565429686,28.388823529411766
2025-10-15T19:34:09.322554,-54.7557251908397,-7.374045801526718,-0.26717557251908397,-2.1068974609374997,-2.327164013671875,7.977479931640625,28.435882352941178
2025-10-15T19:34:09.344689,-34.87022900763359,-14.86259541984733,-3.236641221374046,1.8363526733398436,-2.0781670410156248,9.81862100830078,28.48294117647059
2025-10-15T19:34:09.367641,-28.083969465648856,-15.778625954198473,-2.854961832061069,0.373495458984375,-2.6479870361328124,9.938331091308592,28.48294117647059
2025-10-15T19:34:09.384529,-7.893129770992366,-5.015267175572519,-3.7251908396946565,0.5386953735351562,-2.6886884643554687,11.154585534667968,28.53
