timestamp,gyro_x,gyro_y,gyro_z,acc_x,acc_y,acc_z,temp
2025-10-20T13:54:00.209332,2.2748091603053435,-1.0916030534351144,3.946564885496183,0.59376201171875,0.1149216796875,9.631873278808593,24.859411764705882
2025-10-20T13:54:00.226424,2.236641221374046,-0.9236641221374046,3.954198473282443,0.6177040283203125,0.16041151123046873,9.756371765136718,24.81235294117647
2025-10-20T13:54:00.243498,1.717557251908397,-0.48091603053435117,4.0534351145038165,0.6943184814453125,0.0430956298828125,10.043675964355469,24.859411764705882
2025-10-20T13:54:00.260390,1.0,0.2748091603053435,4.213740458015267,0.5243301635742187,0.19871873779296872,9.648632690429688,24.859411764705882
2025-10-20T13:54:00.277263,0.7099236641221374,0.8396946564885496,4.137404580152672,0.5147533569335937,0.09337386474609374,9.459490759277344,24.859411764705882
2025-10-20T13:54:00.294118,0.1984732824427481,1.3358778625954197,4.259541984732825,0.5506663818359374,0.04548983154296875,9.720458740234374,24.76529411764706
2025-10-20T13:54:00.310954,-0.25190839694656486,2.4198473282442747,4.282442748091603,0.6488286499023437,0.2537853759765625,9.64623848876953,24.859411764705882
2025-10-20T13:54:00.327790,-0.9541984732824428,2.9083969465648853,4.2748091603053435,0.5147533569335937,0.19393033447265623,9.45470235595703,24.76529411764706
2025-10-20T13:54:00.344605,-1.5572519083969465,3.4656488549618323,4.061068702290076,0.7038952880859375,0.30406361083984373,9.497797985839844,24.859411764705882
2025-10-20T13:54:00.361416,-1.5114503816793894,3.5877862595419847,4.206106870229007,0.48123453369140623,0.10295067138671875,9.686939916992188,24.81235294117647
2025-10-20T13:54:00.378269,-2.145038167938931,3.8931297709923665,4.198473282442748,0.5219359619140624,0.1484405029296875,9.358934289550781,24.81235294117647
2025-10-20T13:54:00.395131,-2.5801526717557253,3.66412213740458,4.213740458015267,0.5865794067382812,0.12210428466796874,9.418789331054686,24.81235294117647
2025-10-20T13:54:00.411981,-2.648854961832061,4.068702290076335,4.198473282442748,0.5961562133789062,0.105344873046875,9.469067565917967,24.81235294117647
2025-10-20T13:54:00.428831,-2.7786259541984735,4.305343511450381,4.198473282442748,0.507570751953125,0.06703764648437499,9.327809667968749,24.81235294117647
2025-10-20T13:54:00.445682,-2.984732824427481,4.6106870229007635,4.083969465648855,0.5674257934570313,0.0718260498046875,9.282319836425781,24.906470588235294
2025-10-20T13:54:00.462527,-3.145038167938931,4.816793893129771,4.290076335877862,0.48123453369140623,0.01915361328125,9.244012609863281,24.81235294117647
2025-10-20T13:54:00.479385,-2.885496183206107,4.473282442748092,4.030534351145038,0.5219359619140624,0.08140285644531249,9.188945971679686,24.906470588235294
2025-10-20T13:54:00.496222,-2.732824427480916,4.3893129770992365,4.076335877862595,0.47165772705078124,0.08140285644531249,9.176974963378905,24.81235294117647
2025-10-20T13:54:00.513073,-2.7022900763358777,4.061068702290076,4.106870229007634,0.49799394531249996,-0.13168109130859373,9.210493786621093,24.906470588235294
2025-10-20T13:54:00.529917,-2.267175572519084,3.732824427480916,5.847328244274809,0.4955997436523437,-0.03591302490234375,9.069235888671875,24.81235294117647
2025-10-20T13:54:00.547096,-2.2748091603053435,3.4580152671755724,4.00763358778626,0.5482721801757812,0.09337386474609374,9.126696728515624,24.76529411764706
2025-10-20T13:54:00.563979,-1.633587786259542,3.2595419847328246,1.984732824427481,0.5410895751953124,-0.055066638183593745,9.0021982421875,24.859411764705882
2025-10-20T13:54:00.580840,-1.450381679389313,2.877862595419847,5.854961832061068,0.5434837768554687,-0.06464344482421874,9.145850341796875,24.859411764705882
2025-10-20T13:54:00.597686,-1.213740458015267,2.763358778625954,3.7480916030534353,0.507570751953125,0.05027823486328125,8.91840118408203,24.859411764705882
2025-10-20T13:54:00.614533,-1.1450381679389312,2.068702290076336,3.816793893129771,0.47165772705078124,0.00239420166015625,9.045293872070312,24.859411764705882
2025-10-20T13:54:00.631380,-0.9083969465648855,1.6946564885496183,3.618320610687023,0.4836287353515625,-0.0430956298828125,9.02135185546875,24.76529411764706
2025-10-20T13:54:00.648225,-0.6335877862595419,1.2366412213740459,3.633587786259542,0.4644751220703125,-0.0909796630859375,9.045293872070312,24.859411764705882
2025-10-20T13:54:00.665070,-0.6641221374045801,0.9007633587786259,3.7404580152671754,0.44053310546874996,0.105344873046875,9.052476477050782,24.859411764705882
2025-10-20T13:54:00.681927,-0.44274809160305345,0.5801526717557252,3.595419847328244,0.4836287353515625,0.143652099609375,8.90643017578125,24.859411764705882
2025-10-20T13:54:00.698774,-0.17557251908396945,0.2824427480916031,3.7022900763358777,0.49799394531249996,0.040701428222656245,8.89924757080078,24.859411764705882
2025-10-20T13:54:00.715614,-0.4198473282442748,-0.25190839694656486,3.877862595419847,0.5003881469726562,0.055066638183593745,8.990227233886719,24.953529411764706
2025-10-20T13:54:00.732459,-0.6030534351145038,-0.6870229007633588,3.66412213740458,0.4572925170898437,0.04548983154296875,9.184157568359375,24.859411764705882
2025-10-20T13:54:00.749646,-0.8702290076335878,-1.3358778625954197,3.595419847328244,0.4644751220703125,0.105344873046875,9.093177905273437,24.906470588235294
2025-10-20T13:54:00.766516,-0.8931297709923665,-1.7633587786259541,3.763358778625954,0.507570751953125,0.09576806640624999,9.102754711914063,24.81235294117647
2025-10-20T13:54:00.783370,-1.0229007633587786,-1.9618320610687023,3.687022900763359,0.5434837768554687,0.07422025146484375,9.04050546875,24.81235294117647
2025-10-20T13:54:00.800387,-1.450381679389313,-2.312977099236641,1.9541984732824427,0.47644613037109373,0.13407529296874998,9.141061938476563,24.859411764705882
2025-10-20T13:54:00.817270,-1.83206106870229,-2.5877862595419847,3.8931297709923665,0.6057330200195312,0.08858546142578125,9.131485131835937,24.906470588235294
2025-10-20T13:54:00.834134,-1.9465648854961832,-3.0839694656488548,3.786259541984733,0.5243301635742187,0.09576806640624999,9.198522778320312,24.906470588235294
2025-10-20T13:54:00.850987,-1.9312977099236641,-3.3740458015267176,3.595419847328244,0.5099649536132812,0.1388636962890625,9.26316622314453,24.906470588235294
2025-10-20T13:54:00.867835,-2.5572519083969465,-3.3435114503816794,3.549618320610687,0.47884033203125,0.1292868896484375,9.200916979980468,24.81235294117647
2025-10-20T13:54:00.884694,-3.0916030534351147,-3.6793893129770994,3.4732824427480917,0.47165772705078124,0.1005564697265625,9.17458076171875,24.81235294117647
2025-10-20T13:54:00.901539,-3.1297709923664123,-3.8625954198473282,3.633587786259542,0.51714755859375,0.1197100830078125,9.33978067626953,24.81235294117647
2025-10-20T13:54:00.918390,-3.4885496183206106,-3.8625954198473282,3.5419847328244276,0.5339069702148437,0.09816226806640624,9.22485899658203,24.81235294117647
2025-10-20T13:54:00.935239,-3.786259541984733,-4.076335877862595,3.7938931297709924,0.5003881469726562,0.10295067138671875,9.330203869628905,24.906470588235294
2025-10-20T13:54:00.952127,-4.129770992366412,-4.190839694656488,3.6946564885496183,0.5602431884765625,0.29927520751953124,9.248801013183593,24.81235294117647
2025-10-20T13:54:00.968992,-4.259541984732825,-3.9618320610687023,3.66412213740458,0.5339069702148437,0.11252747802734374,9.296685046386719,24.906470588235294
2025-10-20T13:54:00.985838,-4.206106870229007,-4.091603053435114,3.5801526717557253,0.507570751953125,0.0430956298828125,9.380482104492186,24.81235294117647
2025-10-20T13:54:01.002688,-4.465648854961832,-4.030534351145038,3.519083969465649,0.5458779785156249,0.09816226806640624,9.387664709472656,24.81235294117647
2025-10-20T13:54:01.019538,-4.557251908396947,-3.8702290076335877,3.351145038167939,0.74699091796875,0.062249243164062495,9.49300958251953,24.81235294117647
2025-10-20T13:54:01.036395,-4.519083969465649,-3.519083969465649,3.49618320610687,0.5674257934570313,0.07900865478515624,9.464279162597656,24.906470588235294
2025-10-20T13:54:01.053308,-4.1679389312977095,-3.267175572519084,3.450381679389313,0.74699091796875,0.06703764648437499,9.586383447265625,24.953529411764706
2025-10-20T13:54:01.070169,-4.190839694656488,-3.0,3.312977099236641,0.5722141967773438,0.04548983154296875,9.476250170898437,24.859411764705882
2025-10-20T13:54:01.087145,-4.061068702290076,-2.8396946564885495,3.2519083969465647,0.5506663818359374,-0.1388636962890625,9.648632690429688,24.81235294117647
2025-10-20T13:54:01.104005,-3.7480916030534353,-2.2595419847328246,3.3740458015267176,0.5865794067382812,0.0,9.591171850585937,24.906470588235294
2025-10-20T13:54:01.120858,-3.6793893129770994,-2.1526717557251906,3.183206106870229,0.46686932373046874,-0.0143652099609375,9.574412438964844,24.906470588235294
2025-10-20T13:54:01.137704,-3.6793893129770994,-1.5419847328244274,3.122137404580153,0.5578489868164063,0.08379705810546874,9.600748657226562,24.81235294117647
2025-10-20T13:54:01.154583,-3.4580152671755724,-0.7786259541984732,3.1297709923664123,0.584185205078125,0.0047884033203125,9.715670336914062,24.81235294117647
2025-10-20T13:54:01.171465,-2.8396946564885495,-0.4122137404580153,2.9618320610687023,0.5482721801757812,0.05985504150390625,9.598354455566406,24.81235294117647
2025-10-20T13:54:01.188325,-2.6717557251908395,-0.06870229007633588,3.015267175572519,0.5746083984375,0.08140285644531249,9.548076220703125,24.859411764705882
2025-10-20T13:54:01.205170,-2.427480916030534,0.366412213740458,2.8244274809160306,0.55545478515625,0.08140285644531249,9.598354455566406,24.81235294117647
2025-10-20T13:54:01.222020,-2.1755725190839694,0.8396946564885496,2.717557251908397,0.622492431640625,0.12449848632812499,9.631873278808593,24.81235294117647
2025-10-20T13:54:01.238866,-1.900763358778626,1.3969465648854962,2.7709923664122136,0.5386953735351562,0.028730419921875,9.550470422363281,24.81235294117647
2025-10-20T13:54:01.255726,-1.4580152671755726,0.007633587786259542,2.5114503816793894,0.6081272216796875,-0.15322890625,9.536105212402344,24.953529411764706
2025-10-20T13:54:01.272596,-1.1145038167938932,2.5419847328244276,2.3740458015267176,0.6296750366210937,0.062249243164062495,9.595960253906249,24.76529411764706
2025-10-20T13:54:01.289463,-0.9923664122137404,2.9770992366412212,2.4427480916030535,0.5458779785156249,0.1005564697265625,9.617508068847656,24.859411764705882
2025-10-20T13:54:01.306315,-0.7786259541984732,3.2977099236641223,2.2595419847328246,0.5626373901367188,0.0047884033203125,9.643844287109374,24.859411764705882
2025-10-20T13:54:01.323165,-0.35877862595419846,3.7480916030534353,2.183206106870229,0.5458779785156249,0.03591302490234375,9.586383447265625,24.859411764705882
2025-10-20T13:54:01.340014,-0.20610687022900764,4.137404580152672,2.0763358778625953,0.5410895751953124,0.05746083984375,9.478644372558593,24.859411764705882
2025-10-20T13:54:01.356851,-0.07633587786259542,4.33587786259542,1.9389312977099236,0.6153098266601562,0.0,9.45470235595703,24.859411764705882
2025-10-20T13:54:01.373688,0.08396946564885496,4.549618320610687,1.984732824427481,0.5339069702148437,0.040701428222656245,9.411606726074218,24.859411764705882
2025-10-20T13:54:01.390535,0.13740458015267176,5.091603053435114,1.9465648854961832,0.5889736083984375,0.033518823242187495,9.418789331054686,24.859411764705882
2025-10-20T13:54:01.407447,0.5343511450381679,5.32824427480916,1.7786259541984732,0.5291185668945312,0.0047884033203125,9.325415466308593,24.859411764705882
2025-10-20T13:54:01.424316,0.4732824427480916,5.267175572519084,1.8244274809160306,0.5746083984375,0.04548983154296875,9.315838659667968,24.859411764705882
2025-10-20T13:54:01.441162,0.8702290076335878,5.229007633587786,1.83206106870229,0.5482721801757812,0.03591302490234375,9.282319836425781,24.953529411764706
2025-10-20T13:54:01.458003,1.0,5.1679389312977095,1.9236641221374047,0.5027823486328125,0.06703764648437499,9.258377819824219,24.859411764705882
2025-10-20T13:54:01.474848,1.3511450381679388,5.099236641221374,1.702290076335878,0.5961562133789062,0.00718260498046875,9.244012609863281,24.953529411764706
2025-10-20T13:54:01.491701,1.3358778625954197,4.916030534351145,1.748091603053435,0.5027823486328125,0.033518823242187495,9.07163009033203,24.859411764705882
2025-10-20T13:54:01.508544,1.534351145038168,4.748091603053435,1.7557251908396947,0.5195417602539062,0.13646949462890623,9.117119921875,24.859411764705882
2025-10-20T13:54:01.525387,1.8473282442748091,4.511450381679389,1.6106870229007633,0.4908113403320312,0.05746083984375,9.064447485351561,24.76529411764706
2025-10-20T13:54:01.542231,2.0076335877862594,3.954198473282443,1.6412213740458015,0.4740519287109375,0.040701428222656245,9.138667736816405,24.76529411764706
2025-10-20T13:54:01.559086,1.9541984732824427,3.404580152671756,1.6259541984732824,0.4955997436523437,0.02154781494140625,9.100360510253905,24.859411764705882
2025-10-20T13:54:01.575932,2.0229007633587788,2.8931297709923665,1.6106870229007633,0.4644751220703125,0.06703764648437499,9.064447485351561,24.859411764705882
2025-10-20T13:54:01.592774,1.7251908396946565,2.1755725190839694,1.618320610687023,0.5003881469726562,0.01915361328125,9.102754711914063,24.859411764705882
2025-10-20T13:54:01.609616,1.297709923664122,1.7633587786259541,1.8931297709923665,0.45010991210937495,0.12689268798828124,9.291896643066405,24.76529411764706
2025-10-20T13:54:01.626464,1.4351145038167938,0.8396946564885496,1.748091603053435,0.44053310546874996,0.09576806640624999,8.947131604003905,24.859411764705882
2025-10-20T13:54:01.643398,1.786259541984733,0.37404580152671757,1.5190839694656488,0.40222587890625,-0.028730419921875,9.047688073730468,24.81235294117647
2025-10-20T13:54:01.660516,1.3893129770992367,-0.16030534351145037,1.6793893129770991,0.5482721801757812,0.08379705810546874,9.323021264648437,24.906470588235294
2025-10-20T13:54:01.677387,0.9923664122137404,-0.08396946564885496,1.7328244274809161,0.4908113403320312,0.14125789794921875,9.17458076171875,24.81235294117647
2025-10-20T13:54:01.694258,0.9618320610687023,-0.2748091603053435,1.6106870229007633,0.5913678100585937,0.10295067138671875,9.062053283691405,24.906470588235294
2025-10-20T13:54:01.711093,0.8396946564885496,-0.7251908396946565,1.786259541984733,0.5123591552734374,0.105344873046875,9.306261853027344,24.81235294117647
2025-10-20T13:54:01.727934,0.45038167938931295,-1.366412213740458,1.633587786259542,0.5123591552734374,0.16041151123046873,9.248801013183593,24.81235294117647
2025-10-20T13:54:01.744767,-0.5038167938931297,-1.618320610687023,1.6946564885496183,0.507570751953125,0.20350714111328125,9.265560424804686,24.81235294117647
2025-10-20T13:54:01.761604,-1.0076335877862594,-1.816793893129771,1.5877862595419847,0.5698199951171875,0.11252747802734374,9.41639512939453,24.81235294117647
2025-10-20T13:54:01.778440,-1.0076335877862594,-0.030534351145038167,1.6412213740458015,0.5578489868164063,0.16041151123046873,9.315838659667968,24.906470588235294
2025-10-20T13:54:01.795302,-1.8549618320610688,-1.8702290076335877,1.450381679389313,0.5410895751953124,0.25139117431640623,9.366116894531249,24.906470588235294
2025-10-20T13:54:01.812152,-3.099236641221374,-1.450381679389313,1.6641221374045803,0.5291185668945312,0.229843359375,9.437942944335937,24.906470588235294
2025-10-20T13:54:01.829011,-3.854961832061069,-1.3282442748091603,1.5648854961832062,0.5698199951171875,0.18914193115234373,9.392453112792968,24.81235294117647
2025-10-20T13:54:01.845860,-4.061068702290076,-1.4122137404580153,1.450381679389313,0.5530605834960938,0.20350714111328125,9.351751684570312,24.81235294117647
2025-10-20T13:54:01.862709,-4.824427480916031,-1.618320610687023,1.5725190839694656,0.5267243652343749,0.181959326171875,9.5384994140625,24.906470588235294
2025-10-20T13:54:01.879560,-5.847328244274809,-1.450381679389313,1.3435114503816794,0.5243301635742187,0.201112939453125,9.469067565917967,24.906470588235294
2025-10-20T13:54:01.896473,-6.541984732824427,-1.2290076335877862,1.251908396946565,0.5913678100585937,0.2154781494140625,9.449913952636718,24.81235294117647
2025-10-20T13:54:01.913355,-6.885496183206107,-1.0458015267175573,1.2748091603053435,0.5698199951171875,0.16519991455078123,9.526528405761718,24.81235294117647
2025-10-20T13:54:01.930221,-7.229007633587786,-0.4961832061068702,1.213740458015267,0.5578489868164063,0.17477672119140625,9.394847314453125,24.81235294117647
2025-10-20T13:54:01.947161,-7.687022900763359,-0.40458015267175573,1.251908396946565,0.46686932373046874,0.15322890625,9.387664709472656,24.76529411764706
2025-10-20T13:54:01.964028,-8.030534351145038,-0.09923664122137404,1.2442748091603053,0.46686932373046874,0.1149216796875,9.5001921875,24.81235294117647
2025-10-20T13:54:01.980876,-8.198473282442748,-0.366412213740458,1.1297709923664123,0.5339069702148437,0.09337386474609374,9.394847314453125,24.81235294117647
2025-10-20T13:54:01.997728,-7.977099236641221,-0.2824427480916031,0.9770992366412213,0.5626373901367188,0.086191259765625,9.428366137695312,24.906470588235294
2025-10-20T13:54:02.014621,-8.106870229007633,-0.32061068702290074,0.9923664122137404,0.47884033203125,0.076614453125,9.423577734375,24.81235294117647
2025-10-20T13:54:02.031498,-8.091603053435115,-1.9465648854961832,0.9465648854961832,0.5195417602539062,0.13646949462890623,9.421183532714844,24.906470588235294
2025-10-20T13:54:02.048354,-7.900763358778626,0.08396946564885496,1.0,0.55545478515625,0.033518823242187495,9.287108239746093,24.906470588235294
2025-10-20T13:54:02.065252,-7.320610687022901,0.4580152671755725,0.9618320610687023,0.5291185668945312,-0.023942016601562498,9.26316622314453,24.81235294117647
2025-10-20T13:54:02.082141,-6.9465648854961835,0.2748091603053435,0.9007633587786259,0.51714755859375,0.0143652099609375,9.282319836425781,24.859411764705882
2025-10-20T13:54:02.099006,-6.595419847328245,0.1297709923664122,0.8473282442748091,0.5123591552734374,-0.14604630126953125,9.191340173339842,24.859411764705882
2025-10-20T13:54:02.115850,-6.076335877862595,-0.06870229007633588,0.6412213740458015,0.5458779785156249,0.00239420166015625,9.193734375,24.859411764705882
2025-10-20T13:54:02.132696,-5.297709923664122,-0.44274809160305345,0.7175572519083969,0.6081272216796875,-0.09816226806640624,9.169792358398437,24.859411764705882
2025-10-20T13:54:02.149538,-4.419847328244275,-0.3816793893129771,0.6641221374045801,0.5219359619140624,-0.11252747802734374,9.114725720214842,24.953529411764706
2025-10-20T13:54:02.166385,-3.6259541984732824,-0.5038167938931297,0.5190839694656488,0.5291185668945312,-0.00239420166015625,9.1554271484375,24.953529411764706
2025-10-20T13:54:02.183250,-2.717557251908397,-0.7709923664122137,0.549618320610687,0.5793968017578125,-0.0143652099609375,9.165003955078124,24.859411764705882
2025-10-20T13:54:02.200111,-1.7404580152671756,-0.9312977099236641,0.2366412213740458,0.51714755859375,-0.1005564697265625,9.093177905273437,24.859411764705882
2025-10-20T13:54:02.216952,-0.916030534351145,-1.3740458015267176,0.22137404580152673,0.4908113403320312,-0.0430956298828125,9.035717065429687,24.859411764705882
2025-10-20T13:54:02.233801,0.015267175572519083,-1.8091603053435115,0.22137404580152673,0.6009446166992187,-0.08858546142578125,9.066841687011719,24.859411764705882
2025-10-20T13:54:02.250644,1.0229007633587786,-1.83206106870229,0.3282442748091603,0.5003881469726562,-0.1149216796875,9.023746057128905,24.76529411764706
2025-10-20T13:54:02.267757,2.0,-2.183206106870229,0.16793893129770993,0.47165772705078124,-0.03591302490234375,9.042899670410156,24.859411764705882
2025-10-20T13:54:02.284624,3.122137404580153,-2.2748091603053435,-0.015267175572519083,0.5003881469726562,-0.0526724365234375,9.229647399902344,24.859411764705882
2025-10-20T13:54:02.301492,2.0610687022900764,-2.3435114503816794,-1.9389312977099236,0.5123591552734374,-0.07422025146484375,9.047688073730468,24.76529411764706
2025-10-20T13:54:02.318339,4.793893129770993,-2.633587786259542,-0.20610687022900764,0.4955997436523437,-0.13168109130859373,9.054870678710937,24.859411764705882
2025-10-20T13:54:02.335191,5.641221374045801,-2.7786259541984735,-0.13740458015267176,0.5099649536132812,-0.03591302490234375,9.212887988281249,24.859411764705882
2025-10-20T13:54:02.352038,6.282442748091603,-3.114503816793893,-0.12213740458015267,0.507570751953125,-0.086191259765625,9.260772021484375,24.859411764705882
2025-10-20T13:54:02.368889,6.984732824427481,-3.2900763358778624,-0.2824427480916031,0.46208092041015625,-0.08140285644531249,9.215282189941405,24.81235294117647
2025-10-20T13:54:02.385734,7.297709923664122,-3.1908396946564888,-0.11450381679389313,0.5003881469726562,-0.0047884033203125,9.294290844726563,24.81235294117647
2025-10-20T13:54:02.402584,7.702290076335878,-3.068702290076336,-0.31297709923664124,0.488417138671875,-0.023942016601562498,9.215282189941405,24.81235294117647
2025-10-20T13:54:02.419426,7.877862595419847,-2.8244274809160306,-0.17557251908396945,0.5339069702148437,0.033518823242187495,9.421183532714844,24.859411764705882
2025-10-20T13:54:02.436272,7.961832061068702,-2.6717557251908395,-0.4198473282442748,0.5674257934570313,0.07900865478515624,9.3852705078125,24.859411764705882
2025-10-20T13:54:02.453115,7.885496183206107,-2.6030534351145036,-0.40458015267175573,0.5147533569335937,0.05746083984375,9.579200842285156,24.953529411764706
2025-10-20T13:54:02.469958,7.282442748091603,-2.572519083969466,1.9236641221374047,0.5410895751953124,0.10295067138671875,9.639055883789062,24.859411764705882
2025-10-20T13:54:02.486811,6.923664122137405,-2.0610687022900764,-0.3893129770992366,0.5746083984375,0.1771709228515625,9.375693701171874,24.859411764705882
2025-10-20T13:54:02.503675,6.32824427480916,-1.717557251908397,-0.3816793893129771,0.5674257934570313,0.16280571289062498,9.545682019042967,24.859411764705882
2025-10-20T13:54:02.520523,5.366412213740458,-1.099236641221374,-0.26717557251908397,0.59376201171875,0.2561795776367187,9.526528405761718,24.859411764705882
2025-10-20T13:54:02.537370,3.946564885496183,-0.732824427480916,-0.45038167938931295,0.6560112548828124,0.258573779296875,9.78031378173828,24.76529411764706
2025-10-20T13:54:02.554218,2.946564885496183,-0.5190839694656488,-0.4580152671755725,0.5626373901367188,0.2442085693359375,9.583989245605467,24.859411764705882
2025-10-20T13:54:02.571070,1.381679389312977,-0.015267175572519083,-0.6183206106870229,0.59376201171875,0.36152445068359373,9.576806640625,24.81235294117647
2025-10-20T13:54:02.587913,-0.4198473282442748,0.35877862595419846,-0.5572519083969466,0.6655880615234374,0.316034619140625,9.751583361816406,24.859411764705882
2025-10-20T13:54:02.604760,-1.8549618320610688,1.1450381679389312,-0.5725190839694656,0.6440402465820312,0.3687070556640625,9.567229833984374,24.859411764705882
2025-10-20T13:54:02.621603,-3.5877862595419847,1.7633587786259541,-0.6335877862595419,0.5961562133789062,0.41419688720703124,9.593566052246093,24.859411764705882
2025-10-20T13:54:02.638448,-5.297709923664122,2.450381679389313,-0.6870229007633588,0.612915625,0.3711012573242187,9.648632690429688,24.953529411764706
2025-10-20T13:54:02.655314,-7.145038167938932,3.1068702290076335,-0.6717557251908397,0.5793968017578125,0.3495534423828125,9.64623848876953,24.76529411764706
2025-10-20T13:54:02.672214,-8.65648854961832,3.366412213740458,-0.8244274809160306,0.5674257934570313,0.35194764404296874,9.509768994140625,24.81235294117647
2025-10-20T13:54:02.689080,-10.389312977099237,4.0,-0.7022900763358778,0.5219359619140624,0.28012159423828126,9.564835632324218,24.906470588235294
2025-10-20T13:54:02.705927,-11.595419847328245,4.419847328244275,-0.8244274809160306,0.5722141967773438,0.26336218261718747,9.469067565917967,24.906470588235294
2025-10-20T13:54:02.722779,-13.053435114503817,4.6106870229007635,-0.6641221374045801,0.5913678100585937,0.16519991455078123,9.411606726074218,24.81235294117647
2025-10-20T13:54:02.739686,-14.045801526717558,5.129770992366412,-0.5954198473282443,0.5386953735351562,0.20350714111328125,9.380482104492186,24.906470588235294
2025-10-20T13:54:02.756565,-14.549618320610687,5.404580152671755,-0.6641221374045801,0.5770026000976562,0.18914193115234373,9.382876306152344,24.859411764705882
2025-10-20T13:54:02.773442,-15.229007633587786,5.2748091603053435,-0.5267175572519084,0.49799394531249996,0.16280571289062498,9.327809667968749,24.859411764705882
2025-10-20T13:54:02.790327,-15.534351145038167,5.061068702290076,-0.6412213740458015,0.5578489868164063,0.12210428466796874,9.26316622314453,24.859411764705882
2025-10-20T13:54:02.807273,-15.83206106870229,5.00763358778626,-0.5877862595419847,0.488417138671875,0.009576806640625,9.26316622314453,24.906470588235294
2025-10-20T13:54:02.824131,-15.061068702290076,5.198473282442748,-0.6870229007633588,0.51714755859375,0.02633621826171875,9.255983618164063,24.81235294117647
2025-10-20T13:54:02.840980,-14.236641221374045,5.244274809160306,-0.44274809160305345,0.4213794921875,-0.06943184814453125,9.215282189941405,24.81235294117647
2025-10-20T13:54:02.857823,-13.473282442748092,5.1679389312977095,-0.648854961832061,0.45968671875,-0.09576806640624999,9.241618408203124,24.81235294117647
2025-10-20T13:54:02.874721,-12.32824427480916,4.877862595419847,-0.7099236641221374,0.47165772705078124,-0.10773907470703124,9.064447485351561,24.906470588235294
2025-10-20T13:54:02.891597,-10.595419847328245,4.3893129770992365,-1.015267175572519,0.4955997436523437,-0.201112939453125,9.117119921875,24.81235294117647
2025-10-20T13:54:02.908469,-8.770992366412214,3.572519083969466,-0.9236641221374046,0.3399766357421875,-0.24181436767578124,9.076418493652342,24.859411764705882
2025-10-20T13:54:02.925318,-7.0534351145038165,3.114503816793893,-1.1984732824427482,0.4333505004882812,-0.28969840087890625,9.184157568359375,24.76529411764706
2025-10-20T13:54:02.942166,-5.190839694656488,2.7557251908396947,-1.2748091603053435,0.44532150878906246,-0.2753331909179687,9.016563452148437,24.859411764705882
2025-10-20T13:54:02.959017,-2.8396946564885495,2.099236641221374,-1.3435114503816794,0.41419688720703124,-0.3016694091796875,9.10993731689453,24.859411764705882
2025-10-20T13:54:02.975869,-0.8549618320610687,1.5954198473282444,-1.282442748091603,0.41898529052734373,-0.33039982910156246,9.069235888671875,24.859411764705882
2025-10-20T13:54:02.992707,1.465648854961832,1.2366412213740459,-1.5572519083969465,0.36631285400390623,-0.3327940307617187,9.050082275390624,24.953529411764706
2025-10-20T13:54:03.009554,3.7404580152671754,0.31297709923664124,-1.786259541984733,0.3902548706054687,-0.3591302490234375,8.959102612304687,24.953529411764706
2025-10-20T13:54:03.026397,5.549618320610687,-0.3282442748091603,-1.7557251908396947,0.41419688720703124,-0.3447650390625,9.114725720214842,24.859411764705882
2025-10-20T13:54:03.043287,7.450381679389313,-1.1221374045801527,-2.030534351145038,0.4429273071289062,-0.258573779296875,9.038111267089842,24.76529411764706
2025-10-20T13:54:03.060161,9.206106870229007,-0.007633587786259542,-1.9770992366412214,0.488417138671875,-0.2561795776367187,9.119514123535156,24.906470588235294
2025-10-20T13:54:03.077037,10.725190839694656,-2.366412213740458,-2.1068702290076335,0.5051765502929687,-0.21068974609375,9.153032946777342,25.000588235294117
2025-10-20T13:54:03.093902,11.961832061068701,-2.8702290076335877,-2.2519083969465647,0.47884033203125,-0.009576806640625,9.176974963378905,24.81235294117647
2025-10-20T13:54:03.110761,12.793893129770993,-3.114503816793893,-2.0839694656488548,0.5889736083984375,-0.11252747802734374,9.203311181640624,24.906470588235294
2025-10-20T13:54:03.127647,13.312977099236642,-3.5877862595419847,-2.0763358778625953,0.34237083740234375,0.028730419921875,9.277531433105468,24.906470588235294
2025-10-20T13:54:03.144513,15.618320610687023,-4.0458015267175576,-2.2595419847328246,0.6081272216796875,0.033518823242187495,9.22485899658203,24.953529411764706
2025-10-20T13:54:03.161356,13.49618320610687,-4.229007633587786,-2.0916030534351147,0.5147533569335937,0.08140285644531249,9.33978067626953,24.859411764705882
2025-10-20T13:54:03.178216,12.938931297709924,-4.732824427480916,-1.8854961832061068,0.507570751953125,0.21787235107421873,9.342174877929686,24.859411764705882
2025-10-20T13:54:03.195074,12.229007633587786,-4.67175572519084,-1.9923664122137406,0.5267243652343749,0.1867477294921875,9.279925634765624,24.859411764705882
2025-10-20T13:54:03.211926,10.946564885496183,-4.32824427480916,-1.748091603053435,0.5386953735351562,0.15562310791015624,9.375693701171874,24.76529411764706
2025-10-20T13:54:03.228779,9.664122137404581,-4.320610687022901,-1.450381679389313,0.51714755859375,0.3136404174804687,9.45470235595703,24.859411764705882
2025-10-20T13:54:03.245623,7.648854961832061,-4.129770992366412,-1.549618320610687,0.5410895751953124,0.38307226562499996,9.45470235595703,24.859411764705882
2025-10-20T13:54:03.262481,5.6106870229007635,-4.114503816793893,-1.3206106870229009,0.5339069702148437,0.411802685546875,9.488221179199218,24.859411764705882
2025-10-20T13:54:03.279341,3.6793893129770994,-5.801526717557252,-1.0916030534351144,0.5243301635742187,0.4572925170898437,9.459490759277344,24.859411764705882
2025-10-20T13:54:03.296187,1.0534351145038168,-3.381679389312977,-0.9312977099236641,0.5746083984375,0.469263525390625,9.488221179199218,24.859411764705882
2025-10-20T13:54:03.313040,-1.465648854961832,-2.687022900763359,-1.0458015267175573,0.6631938598632812,0.33518823242187495,9.603142858886718,24.859411764705882
2025-10-20T13:54:03.329885,-4.465648854961832,-1.5038167938931297,-0.916030534351145,0.565031591796875,0.3950432739257812,9.478644372558593,24.953529411764706
2025-10-20T13:54:03.346730,-3.931297709923664,-1.4580152671755726,-0.816793893129771,0.584185205078125,0.38307226562499996,9.509768994140625,24.859411764705882
2025-10-20T13:54:03.363574,-8.01526717557252,-0.9694656488549618,-0.648854961832061,0.5602431884765625,0.33039982910156246,9.550470422363281,24.859411764705882
2025-10-20T13:54:03.380418,-10.50381679389313,-0.6259541984732825,-0.7404580152671756,0.5674257934570313,0.4070142822265625,9.533711010742186,24.859411764705882
2025-10-20T13:54:03.397264,-12.50381679389313,-0.12213740458015267,-0.6564885496183206,0.7565677246093749,0.28490999755859375,9.421183532714844,24.953529411764706
2025-10-20T13:54:03.414112,-13.564885496183207,0.7099236641221374,-0.8244274809160306,0.5626373901367188,0.25139117431640623,9.368511096191405,24.859411764705882
2025-10-20T13:54:03.430956,-14.17557251908397,1.1374045801526718,-0.9465648854961832,0.6009446166992187,0.2442085693359375,9.279925634765624,24.953529411764706
2025-10-20T13:54:03.447800,-15.511450381679388,1.8396946564885497,-0.9389312977099237,0.5770026000976562,0.14604630126953125,9.404424121093749,24.859411764705882
2025-10-20T13:54:03.464645,-16.015267175572518,1.786259541984733,-0.9541984732824428,0.51714755859375,0.2753331909179687,9.313444458007812,24.859411764705882
2025-10-20T13:54:03.481490,-15.679389312977099,2.015267175572519,-1.1221374045801527,0.5674257934570313,0.09576806640624999,9.363722692871093,24.953529411764706
2025-10-20T13:54:03.498334,-15.473282442748092,2.015267175572519,-1.1221374045801527,0.5147533569335937,-0.09816226806640624,9.30147344970703,24.859411764705882
2025-10-20T13:54:03.515178,-15.099236641221374,2.0,-1.1374045801526718,0.5243301635742187,-0.07900865478515624,9.229647399902344,24.953529411764706
2025-10-20T13:54:03.532021,-14.259541984732824,2.4198473282442747,-1.3129770992366412,0.5195417602539062,-0.0047884033203125,9.054870678710937,24.906470588235294
2025-10-20T13:54:03.548864,-13.145038167938932,2.4427480916030535,-1.450381679389313,0.5267243652343749,-0.15322890625,9.172186560058593,24.906470588235294
2025-10-20T13:54:03.565709,-11.541984732824428,2.618320610687023,-1.618320610687023,0.4740519287109375,-0.16998831787109375,9.246406811523437,24.906470588235294
2025-10-20T13:54:03.582615,-10.183206106870228,2.4656488549618323,-1.6641221374045803,0.3687070556640625,-0.1149216796875,9.323021264648437,24.906470588235294
2025-10-20T13:54:03.599487,-8.80916030534351,2.2900763358778624,-1.9770992366412214,0.4908113403320312,-0.29927520751953124,9.162609753417968,24.906470588235294
2025-10-20T13:54:03.616357,-7.122137404580153,1.8396946564885497,-2.2061068702290076,0.4860229370117187,-0.2657563842773437,9.10993731689453,24.859411764705882
2025-10-20T13:54:03.633265,-5.251908396946565,1.4885496183206106,-2.2900763358778624,0.430956298828125,-0.2705447875976562,9.332598071289063,24.859411764705882
2025-10-20T13:54:03.650130,-3.4580152671755724,1.213740458015267,-2.5343511450381677,0.4285620971679687,-0.26815058593749996,9.133879333496093,24.81235294117647
2025-10-20T13:54:03.667051,-2.045801526717557,1.1068702290076335,-2.7022900763358777,0.5626373901367188,-0.239420166015625,9.342174877929686,24.81235294117647
2025-10-20T13:54:03.683905,-0.20610687022900764,0.9312977099236641,-2.9236641221374047,0.5219359619140624,-0.2537853759765625,9.191340173339842,24.906470588235294
2025-10-20T13:54:03.700750,1.4427480916030535,0.9541984732824428,-3.236641221374046,0.430956298828125,-0.239420166015625,9.332598071289063,24.906470588235294
2025-10-20T13:54:03.717601,2.9923664122137406,0.6412213740458015,-3.267175572519084,0.44532150878906246,-0.19632453613281248,9.265560424804686,24.906470588235294
2025-10-20T13:54:03.734863,1.9618320610687023,0.3969465648854962,-3.3435114503816794,0.5267243652343749,-0.1771709228515625,9.260772021484375,24.906470588235294
2025-10-20T13:54:03.751754,5.091603053435114,0.07633587786259542,-3.5801526717557253,0.5051765502929687,-0.30406361083984373,9.361328491210937,25.000588235294117
2025-10-20T13:54:03.768613,6.221374045801527,-0.12213740458015267,-3.5801526717557253,0.5578489868164063,-0.11013327636718749,9.299079248046874,24.859411764705882
2025-10-20T13:54:03.785463,7.145038167938932,-0.10687022900763359,-3.7404580152671754,0.5195417602539062,-0.28490999755859375,9.421183532714844,24.859411764705882
2025-10-20T13:54:03.802312,7.572519083969466,-0.015267175572519083,-3.5877862595419847,0.5530605834960938,-0.05746083984375,9.382876306152344,24.859411764705882
2025-10-20T13:54:03.819173,7.793893129770993,0.022900763358778626,-3.816793893129771,0.5626373901367188,-0.1388636962890625,9.402029919433593,24.859411764705882
2025-10-20T13:54:03.836019,8.244274809160306,0.07633587786259542,-3.5572519083969465,0.5147533569335937,-0.00718260498046875,9.406818322753905,24.859411764705882
2025-10-20T13:54:03.852863,8.351145038167939,0.015267175572519083,-3.7251908396946565,0.5051765502929687,0.09337386474609374,9.504980590820312,24.859411764705882
2025-10-20T13:54:03.869729,7.786259541984733,-0.13740458015267176,-3.4656488549618323,0.5530605834960938,0.09576806640624999,9.473855969238281,24.859411764705882
2025-10-20T13:54:03.886586,7.320610687022901,0.0916030534351145,-3.4656488549618323,0.584185205078125,0.1292868896484375,9.445125549316407,24.953529411764706
2025-10-20T13:54:03.903432,6.900763358778626,0.13740458015267176,-3.2595419847328246,0.5674257934570313,0.1292868896484375,9.457096557617186,24.953529411764706
2025-10-20T13:54:03.920285,6.435114503816794,0.42748091603053434,-3.1908396946564888,0.5698199951171875,0.19871873779296872,9.536105212402344,24.859411764705882
2025-10-20T13:54:03.937125,5.534351145038168,0.5725190839694656,-3.2213740458015265,0.47165772705078124,0.22266075439453123,9.524134204101562,24.859411764705882
2025-10-20T13:54:03.953970,4.412213740458015,0.6259541984732825,-3.16793893129771,0.48123453369140623,0.21787235107421873,9.550470422363281,24.859411764705882
2025-10-20T13:54:03.970813,3.450381679389313,0.7862595419847328,-2.8625954198473282,0.5817910034179687,0.239420166015625,9.526528405761718,24.953529411764706
2025-10-20T13:54:03.988066,2.6564885496183206,0.6564885496183206,-2.801526717557252,0.5530605834960938,0.3136404174804687,9.514557397460937,24.906470588235294
2025-10-20T13:54:04.004974,1.5648854961832062,0.7862595419847328,-2.954198473282443,0.6248866333007812,0.5315127685546874,9.387664709472656,24.859411764705882
2025-10-20T13:54:04.021865,0.10687022900763359,0.7633587786259542,-3.068702290076336,0.5315127685546874,0.40940848388671874,9.404424121093749,24.859411764705882
2025-10-20T13:54:04.038707,-1.2366412213740459,1.183206106870229,-3.2595419847328246,0.5099649536132812,0.2825157958984375,9.562441430664062,24.953529411764706
2025-10-20T13:54:04.055551,-1.7099236641221374,1.5801526717557253,-3.145038167938931,0.4572925170898437,0.3064578125,9.540893615722656,24.859411764705882
2025-10-20T13:54:04.072394,-2.6717557251908395,1.5648854961832062,-3.1374045801526718,0.565031591796875,0.2609679809570312,9.358934289550781,24.859411764705882
2025-10-20T13:54:04.089240,-3.9770992366412212,1.633587786259542,-2.969465648854962,0.5434837768554687,0.229843359375,9.605537060546874,24.953529411764706
2025-10-20T13:54:04.106083,-4.984732824427481,1.4122137404580153,-3.145038167938931,0.5363011718749999,0.24899697265624998,9.33978067626953,24.859411764705882
2025-10-20T13:54:04.122941,-5.66412213740458,1.0687022900763359,-3.2595419847328246,0.4908113403320312,0.26336218261718747,9.318232861328125,24.859411764705882
2025-10-20T13:54:04.139784,-5.984732824427481,1.2748091603053435,-3.2519083969465647,0.49799394531249996,0.30885201416015623,9.375693701171874,24.81235294117647
2025-10-20T13:54:04.156628,-6.4961832061068705,1.4580152671755726,-3.404580152671756,0.49799394531249996,0.13646949462890623,9.18655177001953,24.81235294117647
2025-10-20T13:54:04.173468,-6.786259541984733,1.717557251908397,-3.5267175572519083,0.5027823486328125,0.11252747802734374,9.229647399902344,24.906470588235294
2025-10-20T13:54:04.190308,-6.648854961832061,1.8931297709923665,-3.33587786259542,0.5051765502929687,0.02154781494140625,9.289502441406249,24.906470588235294
2025-10-20T13:54:04.207154,-6.656488549618321,1.7404580152671756,-3.5114503816793894,0.41898529052734373,0.00239420166015625,9.124302526855468,24.906470588235294
2025-10-20T13:54:04.224007,-6.435114503816794,0.9083969465648855,-3.5419847328244276,0.4955997436523437,-0.040701428222656245,9.3086560546875,24.906470588235294
2025-10-20T13:54:04.240854,-5.984732824427481,0.6412213740458015,-3.572519083969466,0.45010991210937495,-0.086191259765625,9.17458076171875,24.906470588235294
2025-10-20T13:54:04.257695,-5.427480916030534,0.4351145038167939,-3.8091603053435112,0.4740519287109375,-0.10773907470703124,9.143456140136719,24.81235294117647
2025-10-20T13:54:04.274539,-4.656488549618321,0.5267175572519084,-3.763358778625954,0.4836287353515625,-0.09576806640624999,9.105148913574219,24.906470588235294
2025-10-20T13:54:04.291383,-3.931297709923664,0.3511450381679389,-3.687022900763359,0.6153098266601562,-0.0526724365234375,9.181763366699219,24.81235294117647
2025-10-20T13:54:04.308234,-3.6030534351145036,-0.12213740458015267,-3.732824427480916,0.6248866333007812,-0.229843359375,9.112331518554686,24.906470588235294
2025-10-20T13:54:04.325088,-2.969465648854962,-0.7709923664122137,-4.068702290076335,0.39983167724609375,0.033518823242187495,9.050082275390624,24.81235294117647
2025-10-20T13:54:04.341933,-2.1374045801526718,-1.2671755725190839,-4.229007633587786,0.3232172241210937,0.2346317626953125,9.220070593261719,24.906470588235294
2025-10-20T13:54:04.358774,-2.0076335877862594,-1.717557251908397,-4.656488549618321,0.258573779296875,0.13646949462890623,9.042899670410156,24.906470588235294
2025-10-20T13:54:04.375620,-2.1603053435114505,-2.0610687022900764,-4.770992366412214,0.3016694091796875,-0.02154781494140625,9.18655177001953,24.81235294117647
2025-10-20T13:54:04.392460,-1.7633587786259541,-2.3282442748091605,-4.404580152671755,0.229843359375,-0.21308394775390624,9.236830004882812,24.906470588235294
2025-10-20T13:54:04.409306,-1.4122137404580153,-2.3435114503816794,-4.1679389312977095,0.26336218261718747,-0.1149216796875,9.07163009033203,24.906470588235294
2025-10-20T13:54:04.426216,-1.633587786259542,-2.954198473282443,-3.8091603053435112,0.2705447875976562,0.086191259765625,9.255983618164063,24.859411764705882
2025-10-20T13:54:04.443099,-1.7633587786259541,-2.946564885496183,-3.7404580152671754,0.26815058593749996,0.28012159423828126,9.275137231445312,24.906470588235294
2025-10-20T13:54:04.459960,-2.3893129770992365,-3.16793893129771,-4.213740458015267,0.19153613281249998,0.411802685546875,9.282319836425781,24.906470588235294
2025-10-20T13:54:04.476856,-2.5419847328244276,-3.3282442748091605,-4.778625954198473,0.4070142822265625,0.3854664672851562,9.239224206542968,24.906470588235294
2025-10-20T13:54:04.493718,-2.8702290076335877,-3.6412213740458017,-5.259541984732825,0.3806780639648437,0.2346317626953125,9.246406811523437,24.906470588235294
2025-10-20T13:54:04.510640,-3.2519083969465647,-3.8931297709923665,-5.442748091603053,0.6105214233398437,0.29448680419921874,9.172186560058593,24.859411764705882
2025-10-20T13:54:04.527503,-3.618320610687023,-3.83206106870229,-5.66412213740458,0.469263525390625,0.45489831542968745,9.04050546875,24.859411764705882
2025-10-20T13:54:04.544347,-3.801526717557252,-3.854961832061069,-6.00763358778626,0.7230489013671875,0.22026655273437498,9.107543115234375,24.859411764705882
2025-10-20T13:54:04.561190,-1.9694656488549618,-3.9160305343511452,-6.450381679389313,0.8762778076171874,0.3112462158203125,9.085995300292968,24.953529411764706
2025-10-20T13:54:04.578126,-4.3893129770992365,-4.091603053435114,-6.862595419847328,0.9121908325195311,0.3711012573242187,9.107543115234375,24.906470588235294
2025-10-20T13:54:04.594996,-4.541984732824427,-4.519083969465649,-7.358778625954199,0.7709329345703124,0.22026655273437498,9.244012609863281,24.906470588235294
2025-10-20T13:54:04.611850,-4.32824427480916,-4.3893129770992365,-7.854961832061068,0.8978256225585937,0.19871873779296872,9.052476477050782,24.859411764705882
2025-10-20T13:54:04.628710,-4.297709923664122,-4.2748091603053435,-8.358778625954198,0.9840168823242187,0.3184288208007812,9.1554271484375,24.859411764705882
2025-10-20T13:54:04.645557,-4.145038167938932,-4.290076335877862,-8.86259541984733,0.93852705078125,0.2657563842773437,9.196128576660156,24.953529411764706
2025-10-20T13:54:04.662399,-4.091603053435114,-4.190839694656488,-8.923664122137405,1.0462661254882812,-0.19153613281249998,9.344569079589844,24.859411764705882
2025-10-20T13:54:04.679260,-3.5572519083969465,-4.091603053435114,-8.83206106870229,0.9696516723632812,-0.15562310791015624,9.425971936035156,24.859411764705882
2025-10-20T13:54:04.696118,-2.816793893129771,-3.8244274809160306,-8.702290076335878,1.0462661254882812,-0.16041151123046873,9.380482104492186,24.859411764705882
2025-10-20T13:54:04.712969,-2.351145038167939,-3.854961832061069,-8.564885496183207,1.177947216796875,-0.14125789794921875,9.279925634765624,24.953529411764706
2025-10-20T13:54:04.729822,-1.7404580152671756,-4.022900763358779,-8.595419847328245,1.2018892333984375,-0.15083470458984374,9.423577734375,24.859411764705882
2025-10-20T13:54:04.746671,-1.1603053435114503,-4.114503816793893,-8.84732824427481,1.180341418457031,-0.143652099609375,9.481038574218749,24.906470588235294
2025-10-20T13:54:04.763516,-0.40458015267175573,-3.4198473282442747,-8.931297709923664,1.197100830078125,-0.12689268798828124,9.404424121093749,25.000588235294117
2025-10-20T13:54:04.780354,-0.16030534351145037,-2.6717557251908395,-8.969465648854962,1.16837041015625,-0.086191259765625,9.411606726074218,24.81235294117647
2025-10-20T13:54:04.797191,0.31297709923664124,-2.0916030534351147,-8.961832061068701,1.22583125,-0.08140285644531249,9.387664709472656,24.953529411764706
2025-10-20T13:54:04.814037,0.816793893129771,-1.7786259541984732,-8.870229007633588,1.2952630981445312,-0.15562310791015624,9.37808790283203,24.859411764705882
2025-10-20T13:54:04.830949,1.015267175572519,-1.2748091603053435,-8.954198473282442,1.2689268798828124,-0.16998831787109375,9.682151513671874,24.906470588235294
2025-10-20T13:54:04.847816,1.465648854961832,-0.9083969465648855,-8.793893129770993,1.2114660400390624,-0.19153613281249998,9.5384994140625,24.906470588235294
2025-10-20T13:54:04.864664,1.5725190839694656,-0.3282442748091603,-8.748091603053435,1.2330138549804688,-0.21308394775390624,9.399635717773437,24.906470588235294
2025-10-20T13:54:04.881509,1.5877862595419847,0.15267175572519084,-8.511450381679388,1.1731588134765625,-0.062249243164062495,9.588777648925781,24.906470588235294
2025-10-20T13:54:04.898354,1.7328244274809161,0.7099236641221374,-8.48091603053435,1.0965443603515623,-0.105344873046875,9.5001921875,24.906470588235294
2025-10-20T13:54:04.915200,1.5572519083969465,1.5801526717557253,-8.312977099236642,1.1372457885742187,-0.031124621582031248,9.45470235595703,24.906470588235294
2025-10-20T13:54:04.932055,1.3969465648854962,1.8931297709923665,-8.427480916030534,1.1109095703125,0.028730419921875,9.548076220703125,25.000588235294117
2025-10-20T13:54:04.948900,1.1526717557251909,2.7938931297709924,-8.320610687022901,1.0845733520507812,0.0430956298828125,9.624690673828125,24.859411764705882
2025-10-20T13:54:04.965744,1.0076335877862594,3.2900763358778624,-8.541984732824428,1.1228805786132812,-0.016759411621093748,9.548076220703125,24.953529411764706
2025-10-20T13:54:04.982588,0.6717557251908397,3.816793893129771,-8.282442748091603,1.0749965454101562,-0.011971008300781249,9.701305126953125,24.859411764705882
2025-10-20T13:54:04.999440,0.16030534351145037,4.114503816793893,-8.091603053435115,1.1228805786132812,0.0526724365234375,9.634267480468749,24.859411764705882
2025-10-20T13:54:05.016284,-0.19083969465648856,4.587786259541985,-8.099236641221374,1.0414777221679687,-0.011971008300781249,9.576806640625,24.859411764705882
2025-10-20T13:54:05.033132,-0.5648854961832062,5.0458015267175576,-7.9465648854961835,0.9576806640625,0.08379705810546874,9.579200842285156,24.859411764705882
2025-10-20T13:54:05.049979,-0.9694656488549618,5.572519083969466,-8.053435114503817,0.9552864624023437,0.06943184814453125,9.581595043945311,24.859411764705882
2025-10-20T13:54:05.066832,-1.5190839694656488,5.984732824427481,-8.129770992366412,0.8595183959960937,0.0909796630859375,9.452308154296874,24.859411764705882
2025-10-20T13:54:05.083684,-1.9083969465648856,6.32824427480916,-8.122137404580153,0.8044517578125,0.07900865478515624,9.452308154296874,24.953529411764706
2025-10-20T13:54:05.100548,-2.519083969465649,6.847328244274809,-8.091603053435115,0.6919242797851562,0.12449848632812499,9.572018237304688,24.953529411764706
2025-10-20T13:54:05.117406,-2.9160305343511452,7.030534351145038,-8.106870229007633,0.6967126831054687,0.16280571289062498,9.514557397460937,24.906470588235294
2025-10-20T13:54:05.134256,-3.519083969465649,7.015267175572519,-8.32824427480916,0.6703764648437499,0.24181436767578124,9.457096557617186,24.906470588235294
2025-10-20T13:54:05.151109,-3.946564885496183,6.931297709923665,-8.427480916030534,0.7062894897460937,0.1484405029296875,9.323021264648437,24.906470588235294
2025-10-20T13:54:05.167964,-4.236641221374046,6.938931297709924,-8.366412213740459,0.6584054565429687,0.07900865478515624,9.270348828125,24.81235294117647
2025-10-20T13:54:05.184812,-4.152671755725191,7.0534351145038165,-8.442748091603054,0.7517793212890624,0.11013327636718749,9.126696728515624,25.000588235294117
2025-10-20T13:54:05.201667,-3.7251908396946565,6.0458015267175576,-8.633587786259541,0.7685387329101562,-0.023942016601562498,9.459490759277344,25.000588235294117
2025-10-20T13:54:05.218532,-3.763358778625954,6.305343511450381,-8.610687022900763,0.7661445312499999,-0.19393033447265623,9.172186560058593,24.906470588235294
2025-10-20T13:54:05.235390,-3.572519083969466,5.824427480916031,-8.648854961832061,0.7445967163085937,-0.06703764648437499,9.215282189941405,24.81235294117647
2025-10-20T13:54:05.252240,-3.5801526717557253,4.763358778625954,-8.419847328244275,0.6560112548828124,-0.20350714111328125,9.191340173339842,24.906470588235294
2025-10-20T13:54:05.269140,-2.3893129770992365,4.068702290076335,-8.473282442748092,0.7517793212890624,-0.011971008300781249,9.114725720214842,24.859411764705882
2025-10-20T13:54:05.286022,-1.4122137404580153,2.969465648854962,-8.465648854961833,0.6607996582031249,-0.055066638183593745,9.05965908203125,24.906470588235294
2025-10-20T13:54:05.302882,-1.3129770992366412,2.381679389312977,-8.335877862595419,0.6296750366210937,-0.05985504150390625,9.083601098632812,24.906470588235294
2025-10-20T13:54:05.319849,-1.6030534351145038,1.3587786259541985,-8.366412213740459,0.7062894897460937,-0.02154781494140625,9.14824454345703,24.953529411764706
2025-10-20T13:54:05.336719,-0.9236641221374046,0.6946564885496184,-8.114503816793894,0.7158662963867187,-0.076614453125,9.0788126953125,24.859411764705882
2025-10-20T13:54:05.353565,-0.37404580152671757,0.4122137404580153,-7.778625954198473,0.718260498046875,-0.105344873046875,9.145850341796875,24.859411764705882
2025-10-20T13:54:05.370480,1.8931297709923665,-0.3816793893129771,-7.541984732824427,0.7637503295898437,-0.03591302490234375,9.191340173339842,24.81235294117647
2025-10-20T13:54:05.387337,-0.6717557251908397,-0.9541984732824428,-7.106870229007634,0.565031591796875,-0.0526724365234375,9.054870678710937,24.81235294117647
2025-10-20T13:54:05.404183,-0.6946564885496184,-1.183206106870229,-6.549618320610687,0.5123591552734374,-0.316034619140625,9.167398156738281,24.906470588235294
2025-10-20T13:54:05.421032,-0.5648854961832062,-1.7251908396946565,-5.893129770992366,0.7493851196289062,-0.00718260498046875,9.208099584960937,25.000588235294117
2025-10-20T13:54:05.437917,-0.9694656488549618,-2.0229007633587788,-5.519083969465649,0.6703764648437499,-0.06943184814453125,9.138667736816405,24.906470588235294
2025-10-20T13:54:05.454789,-1.6793893129770991,-2.4580152671755724,-5.190839694656488,0.6967126831054687,0.055066638183593745,9.176974963378905,24.906470588235294
2025-10-20T13:54:05.471636,-2.3206106870229006,-2.7786259541984735,-4.923664122137405,0.6392518432617187,-0.08858546142578125,9.234435803222656,24.906470588235294
2025-10-20T13:54:05.488482,-2.6717557251908395,-2.984732824427481,-4.916030534351145,0.7829039428710937,0.10295067138671875,9.188945971679686,24.81235294117647
2025-10-20T13:54:05.505332,-2.8473282442748094,-3.122137404580153,-4.564885496183206,0.8643067993164062,0.11731588134765625,9.332598071289063,24.906470588235294
2025-10-20T13:54:05.522179,-3.8244274809160306,-3.1068702290076335,-4.435114503816794,0.737414111328125,-0.143652099609375,9.320627062988281,24.906470588235294
2025-10-20T13:54:05.539037,-4.244274809160306,-3.236641221374046,-4.0,0.48123453369140623,0.0383072265625,9.193734375,24.81235294117647
2025-10-20T13:54:05.555880,-4.770992366412214,-2.984732824427481,-3.900763358778626,0.36152445068359373,0.201112939453125,9.481038574218749,24.906470588235294
2025-10-20T13:54:05.572725,-4.694656488549619,-2.931297709923664,-5.8320610687022905,0.3806780639648437,0.19153613281249998,9.481038574218749,24.906470588235294
2025-10-20T13:54:05.589578,-5.412213740458015,-2.5343511450381677,-4.015267175572519,0.411802685546875,0.01915361328125,9.414000927734374,24.906470588235294
2025-10-20T13:54:05.606424,-6.022900763358779,-2.572519083969466,-3.8244274809160306,0.42377369384765623,0.12210428466796874,9.392453112792968,24.906470588235294
2025-10-20T13:54:05.623269,-6.297709923664122,-2.2442748091603053,-4.068702290076335,0.4955997436523437,0.2753331909179687,9.440337145996093,24.906470588235294
2025-10-20T13:54:05.640110,-6.015267175572519,-2.045801526717557,-3.9618320610687023,0.4572925170898437,0.01915361328125,9.349357482910156,24.906470588235294
2025-10-20T13:54:05.656956,-6.251908396946565,-1.4580152671755726,-3.8473282442748094,0.4955997436523437,0.07900865478515624,9.390058911132812,24.906470588235294
2025-10-20T13:54:05.673802,-6.488549618320611,-1.0,-5.854961832061068,0.49320554199218747,0.1388636962890625,9.358934289550781,24.906470588235294
2025-10-20T13:54:05.690839,-6.435114503816794,-0.42748091603053434,-3.6946564885496183,0.5482721801757812,0.05746083984375,9.30147344970703,24.906470588235294
2025-10-20T13:54:05.707706,-5.893129770992366,-0.007633587786259542,-3.618320610687023,0.4572925170898437,0.06703764648437499,9.483432775878907,24.906470588235294
2025-10-20T13:54:05.724551,-5.511450381679389,0.2366412213740458,-3.7709923664122136,0.5123591552734374,0.0430956298828125,9.428366137695312,24.906470588235294
2025-10-20T13:54:05.741404,-5.3893129770992365,0.4580152671755725,-3.564885496183206,0.4908113403320312,-0.033518823242187495,9.418789331054686,24.906470588235294
2025-10-20T13:54:05.758250,-4.572519083969466,0.5343511450381679,-3.7557251908396947,0.5243301635742187,-0.06943184814453125,9.313444458007812,24.906470588235294
2025-10-20T13:54:05.775100,-3.572519083969466,1.0534351145038168,-3.83206106870229,0.5027823486328125,-0.06464344482421874,9.246406811523437,24.81235294117647
2025-10-20T13:54:05.791946,-2.801526717557252,1.534351145038168,-3.7404580152671754,0.4955997436523437,-0.03591302490234375,9.275137231445312,25.000588235294117
2025-10-20T13:54:05.808790,-1.984732824427481,2.0076335877862594,-3.6412213740458017,0.4644751220703125,-0.16759411621093748,9.33978067626953,24.906470588235294
2025-10-20T13:54:05.825634,-1.2900763358778626,2.053435114503817,-3.6946564885496183,0.5410895751953124,-0.09816226806640624,9.215282189941405,24.906470588235294
2025-10-20T13:54:05.842488,-0.022900763358778626,2.2748091603053435,-3.7709923664122136,0.49320554199218747,-0.15562310791015624,9.131485131835937,24.906470588235294
2025-10-20T13:54:05.859339,0.8320610687022901,2.572519083969466,-3.8091603053435112,0.47644613037109373,-0.06464344482421874,9.196128576660156,24.906470588235294
2025-10-20T13:54:05.876182,1.5419847328244274,2.549618320610687,-3.786259541984733,0.4740519287109375,-0.1388636962890625,9.33978067626953,24.906470588235294
2025-10-20T13:54:05.893027,2.3206106870229006,2.8244274809160306,-3.9083969465648853,0.4333505004882812,-0.11252747802734374,9.083601098632812,24.906470588235294
2025-10-20T13:54:05.909872,3.3435114503816794,2.877862595419847,-3.8625954198473282,0.4333505004882812,-0.13646949462890623,9.121908325195312,24.906470588235294
2025-10-20T13:54:05.926719,4.206106870229007,3.145038167938931,-1.9618320610687023,0.45968671875,-0.05027823486328125,9.2320416015625,24.859411764705882
2025-10-20T13:54:05.943572,4.786259541984733,3.1908396946564888,-3.7404580152671754,0.45489831542968745,-0.10295067138671875,9.181763366699219,25.000588235294117
2025-10-20T13:54:05.960415,5.1679389312977095,2.946564885496183,-4.022900763358779,0.4644751220703125,-0.09816226806640624,9.227253198242186,24.953529411764706
2025-10-20T13:54:05.977264,5.6106870229007635,2.732824427480916,-3.877862595419847,0.4955997436523437,-0.04548983154296875,9.064447485351561,24.953529411764706
2025-10-20T13:54:05.994108,6.076335877862595,2.6259541984732824,-3.595419847328244,0.4429273071289062,-0.05027823486328125,9.145850341796875,24.953529411764706
2025-10-20T13:54:06.010958,6.1679389312977095,2.3740458015267176,-3.717557251908397,0.430956298828125,0.143652099609375,9.081206896972656,24.859411764705882
2025-10-20T13:54:06.027806,6.152671755725191,2.4580152671755724,-3.816793893129771,0.39743747558593745,-0.105344873046875,9.289502441406249,24.953529411764706
2025-10-20T13:54:06.044659,6.213740458015267,2.236641221374046,-3.7251908396946565,0.5291185668945312,0.22266075439453123,9.066841687011719,24.859411764705882
2025-10-20T13:54:06.061501,6.038167938931298,1.6946564885496183,-3.49618320610687,0.44532150878906246,0.05027823486328125,9.196128576660156,24.953529411764706
2025-10-20T13:54:06.078343,5.923664122137405,1.3282442748091603,-3.5801526717557253,0.4429273071289062,0.1484405029296875,9.042899670410156,24.859411764705882
2025-10-20T13:54:06.095195,5.473282442748092,0.9923664122137404,-3.6106870229007635,0.44053310546874996,0.1867477294921875,9.291896643066405,24.859411764705882
2025-10-20T13:54:06.112166,4.534351145038168,0.6946564885496184,-3.572519083969466,0.41419688720703124,0.14604630126953125,9.366116894531249,24.906470588235294
2025-10-20T13:54:06.129035,3.572519083969466,0.5114503816793893,-3.3893129770992365,0.43574470214843747,0.1867477294921875,9.332598071289063,24.906470588235294
2025-10-20T13:54:06.145892,2.7251908396946565,0.183206106870229,-3.267175572519084,0.45489831542968745,0.22505495605468748,9.382876306152344,25.000588235294117
2025-10-20T13:54:06.162820,2.030534351145038,0.10687022900763359,-3.4198473282442747,0.44053310546874996,0.21068974609375,9.306261853027344,24.859411764705882
2025-10-20T13:54:06.179680,0.9694656488549618,-0.08396946564885496,-3.3435114503816794,0.4429273071289062,0.28969840087890625,9.481038574218749,24.953529411764706
2025-10-20T13:54:06.196523,-0.5038167938931297,-0.37404580152671757,-3.1297709923664123,0.32082302246093747,0.34237083740234375,9.579200842285156,24.953529411764706
2025-10-20T13:54:06.213447,-1.3893129770992367,-0.8091603053435115,-3.2977099236641223,0.39743747558593745,0.3327940307617187,9.56962403564453,25.000588235294117
2025-10-20T13:54:06.230306,-2.6259541984732824,-0.9083969465648855,-3.2442748091603053,0.4836287353515625,0.3232172241210937,9.425971936035156,25.000588235294117
2025-10-20T13:54:06.247165,-4.0,-0.9694656488549618,-3.0839694656488548,0.5602431884765625,0.3591302490234375,9.595960253906249,24.906470588235294
2025-10-20T13:54:06.264008,-5.1603053435114505,-0.8244274809160306,-3.0,0.5027823486328125,0.33039982910156246,9.598354455566406,24.906470588235294
2025-10-20T13:54:06.280884,-6.7251908396946565,-0.732824427480916,-3.1755725190839694,0.5434837768554687,0.239420166015625,9.557653027343749,24.906470588235294
2025-10-20T13:54:06.297757,-5.931297709923665,-0.42748091603053434,-3.122137404580153,0.5003881469726562,0.3184288208007812,9.627084875488281,24.906470588235294
2025-10-20T13:54:06.314614,-9.022900763358779,-0.5648854961832062,-3.099236641221374,0.4740519287109375,0.2609679809570312,9.612719665527344,24.906470588235294
2025-10-20T13:54:06.331462,-10.061068702290076,-0.5114503816793893,-3.114503816793893,0.47165772705078124,0.2609679809570312,9.670180505371093,24.906470588235294
2025-10-20T13:54:06.348325,-11.091603053435115,-0.5648854961832062,-2.9923664122137406,0.5363011718749999,0.28012159423828126,9.612719665527344,25.000588235294117
2025-10-20T13:54:06.365171,-12.007633587786259,-0.7786259541984732,-3.0839694656488548,0.47644613037109373,0.22744915771484372,9.605537060546874,24.906470588235294
2025-10-20T13:54:06.382017,-12.511450381679388,-0.6183206106870229,-2.954198473282443,0.5051765502929687,0.2442085693359375,9.624690673828125,24.81235294117647
2025-10-20T13:54:06.398862,-13.213740458015268,-0.1984732824427481,-3.198473282442748,0.5003881469726562,0.1771709228515625,9.619902270507811,24.906470588235294
2025-10-20T13:54:06.415713,-13.541984732824428,-0.15267175572519084,-2.900763358778626,0.5147533569335937,0.19632453613281248,9.636661682128906,24.906470588235294
2025-10-20T13:54:06.432560,-13.816793893129772,-0.07633587786259542,-2.9083969465648853,0.4285620971679687,0.12689268798828124,9.545682019042967,25.000588235294117
2025-10-20T13:54:06.449411,-13.748091603053435,-0.06870229007633588,-3.099236641221374,0.4261678955078125,0.05027823486328125,9.552864624023437,24.906470588235294
2025-10-20T13:54:06.466258,-13.320610687022901,-0.21374045801526717,-2.9618320610687023,0.4477157104492187,0.016759411621093748,9.5384994140625,24.81235294117647
2025-10-20T13:54:06.483106,-12.992366412213741,-0.22137404580152673,-3.0610687022900764,0.469263525390625,-0.02154781494140625,9.418789331054686,25.000588235294117
2025-10-20T13:54:06.499946,-12.16793893129771,-0.2824427480916031,-2.931297709923664,0.39983167724609375,-0.023942016601562498,9.445125549316407,25.000588235294117
2025-10-20T13:54:06.516790,-11.48091603053435,-0.33587786259541985,-3.068702290076336,0.4836287353515625,-0.055066638183593745,9.428366137695312,24.81235294117647
2025-10-20T13:54:06.533679,-10.290076335877863,-0.03816793893129771,-3.068702290076336,0.5003881469726562,-0.11013327636718749,9.382876306152344,24.906470588235294
2025-10-20T13:54:06.550560,-8.900763358778626,-0.04580152671755725,-3.053435114503817,0.44053310546874996,-0.1149216796875,9.313444458007812,24.906470588235294
2025-10-20T13:54:06.567412,-7.473282442748092,0.030534351145038167,-3.053435114503817,0.4429273071289062,-0.15083470458984374,9.270348828125,24.859411764705882
2025-10-20T13:54:06.584263,-6.091603053435114,-0.32061068702290074,-3.198473282442748,0.5817910034179687,-0.181959326171875,9.17458076171875,24.953529411764706
2025-10-20T13:54:06.601111,-4.083969465648855,-0.3511450381679389,-3.4122137404580153,0.3064578125,-0.19871873779296872,9.198522778320312,24.953529411764706
2025-10-20T13:54:06.617957,-2.1526717557251906,-0.3282442748091603,-3.435114503816794,0.5243301635742187,-0.22026655273437498,9.222464794921875,24.859411764705882
2025-10-20T13:54:06.634975,-0.7862595419847328,-0.4732824427480916,-3.3435114503816794,0.4644751220703125,-0.2753331909179687,9.200916979980468,24.906470588235294
2025-10-20T13:54:06.653099,1.3129770992366412,-0.4580152671755725,-3.5267175572519083,0.4572925170898437,-0.28012159423828126,9.114725720214842,24.859411764705882
2025-10-20T13:54:06.670003,3.183206106870229,-0.26717557251908397,-3.877862595419847,0.49320554199218747,-0.20350714111328125,8.9255837890625,24.953529411764706
2025-10-20T13:54:06.686864,4.961832061068702,-0.4351145038167939,-3.786259541984733,0.36152445068359373,-0.2059013427734375,8.916006982421875,24.953529411764706
2025-10-20T13:54:06.703704,6.442748091603053,-0.3816793893129771,-3.9083969465648853,0.39983167724609375,-0.19153613281249998,9.093177905273437,24.953529411764706
2025-10-20T13:54:06.720552,7.984732824427481,-0.5267175572519084,-4.091603053435114,0.469263525390625,-0.30406361083984373,9.191340173339842,24.859411764705882
2025-10-20T13:54:06.737394,9.442748091603054,-0.6870229007633588,-4.351145038167939,0.4525041137695312,-0.3016694091796875,9.076418493652342,24.859411764705882
2025-10-20T13:54:06.754248,10.51908396946565,-0.5190839694656488,-4.419847328244275,0.45968671875,-0.29927520751953124,8.894459167480468,24.953529411764706
2025-10-20T13:54:06.771087,11.374045801526718,-0.4122137404580153,-4.33587786259542,0.51714755859375,-0.09337386474609374,8.8872765625,24.953529411764706
2025-10-20T13:54:06.787925,11.83969465648855,-0.4961832061068702,-4.465648854961832,0.5291185668945312,-0.11252747802734374,8.985438830566405,24.859411764705882
2025-10-20T13:54:06.804767,12.251908396946565,-0.3893129770992366,-4.732824427480916,0.42377369384765623,-0.15083470458984374,9.081206896972656,24.953529411764706
2025-10-20T13:54:06.821607,12.312977099236642,-0.44274809160305345,-5.030534351145038,0.4477157104492187,0.011971008300781249,9.325415466308593,24.953529411764706
2025-10-20T13:54:06.838445,12.19083969465649,-0.5572519083969466,-5.137404580152672,0.48123453369140623,0.076614453125,9.062053283691405,24.859411764705882
2025-10-20T13:54:06.855315,11.793893129770993,-0.2824427480916031,-5.106870229007634,0.43574470214843747,0.11013327636718749,9.124302526855468,24.953529411764706
2025-10-20T13:54:06.872169,11.213740458015268,-0.32061068702290074,-5.137404580152672,0.4860229370117187,0.12210428466796874,9.153032946777342,24.953529411764706
2025-10-20T13:54:06.889027,10.450381679389313,-0.37404580152671757,-5.305343511450381,0.4836287353515625,0.16998831787109375,9.342174877929686,24.953529411764706
2025-10-20T13:54:06.905881,9.419847328244275,-0.16793893129770993,-5.229007633587786,0.4908113403320312,0.16519991455078123,9.215282189941405,24.953529411764706
2025-10-20T13:54:06.922734,7.9465648854961835,-0.08396946564885496,-5.366412213740458,0.5123591552734374,0.20829554443359374,9.299079248046874,24.859411764705882
2025-10-20T13:54:06.939585,6.854961832061068,-0.03816793893129771,-5.480916030534351,0.5099649536132812,0.30406361083984373,9.320627062988281,24.906470588235294
2025-10-20T13:54:06.956490,5.442748091603053,0.21374045801526717,-5.419847328244275,0.49799394531249996,0.3112462158203125,9.246406811523437,25.000588235294117
2025-10-20T13:54:06.973387,3.633587786259542,0.13740458015267176,-5.740458015267175,0.5913678100585937,0.296881005859375,9.272743029785156,24.859411764705882
2025-10-20T13:54:06.990258,3.885496183206107,0.2900763358778626,-5.580152671755725,0.5770026000976562,0.3854664672851562,9.306261853027344,24.859411764705882
2025-10-20T13:54:07.007150,0.48854961832061067,0.40458015267175573,-5.305343511450381,0.5482721801757812,0.33039982910156246,9.255983618164063,24.953529411764706
2025-10-20T13:54:07.024021,-1.297709923664122,0.3511450381679389,-5.33587786259542,0.469263525390625,0.3399766357421875,9.325415466308593,24.906470588235294
2025-10-20T13:54:07.040878,-2.9618320610687023,0.21374045801526717,-5.396946564885496,0.5578489868164063,0.38307226562499996,9.334992272949219,25.000588235294117
2025-10-20T13:54:07.057806,-4.633587786259542,0.42748091603053434,-5.305343511450381,0.5195417602539062,0.4261678955078125,9.289502441406249,24.81235294117647
2025-10-20T13:54:07.074681,-5.984732824427481,0.6030534351145038,-5.290076335877862,0.5219359619140624,0.3327940307617187,9.320627062988281,25.000588235294117
2025-10-20T13:54:07.091559,-7.473282442748092,0.6106870229007634,-5.190839694656488,0.5698199951171875,0.3447650390625,9.392453112792968,24.859411764705882
2025-10-20T13:54:07.108415,-9.122137404580153,0.45038167938931295,-5.083969465648855,0.5386953735351562,0.26336218261718747,9.344569079589844,24.953529411764706
2025-10-20T13:54:07.126548,-10.312977099236642,0.4122137404580153,-5.145038167938932,0.507570751953125,0.16519991455078123,9.210493786621093,24.906470588235294
2025-10-20T13:54:07.143426,-11.099236641221374,0.5114503816793893,-5.091603053435114,0.488417138671875,0.26336218261718747,9.241618408203124,24.906470588235294
2025-10-20T13:54:07.160294,-11.755725190839694,0.7022900763358778,-4.931297709923665,0.7158662963867187,0.229843359375,9.763554370117188,24.906470588235294
2025-10-20T13:54:07.177150,-13.198473282442748,0.6793893129770993,-5.015267175572519,0.5770026000976562,0.26815058593749996,9.382876306152344,24.906470588235294
2025-10-20T13:54:07.194002,-11.786259541984732,0.9541984732824428,-4.8396946564885495,0.603338818359375,0.26336218261718747,9.423577734375,24.81235294117647
2025-10-20T13:54:07.210900,-13.442748091603054,0.8396946564885496,-4.67175572519084,0.4908113403320312,0.3016694091796875,9.473855969238281,24.81235294117647
2025-10-20T13:54:07.227790,-13.801526717557252,0.9541984732824428,-4.923664122137405,0.43574470214843747,0.07422025146484375,9.382876306152344,24.953529411764706
2025-10-20T13:54:07.244652,-14.297709923664122,1.1603053435114503,-4.679389312977099,0.39983167724609375,0.105344873046875,9.423577734375,24.859411764705882
2025-10-20T13:54:07.261517,-14.244274809160306,1.1526717557251909,-4.8396946564885495,0.5267243652343749,0.0718260498046875,9.478644372558593,24.906470588235294
2025-10-20T13:54:07.278377,-13.526717557251908,1.1374045801526718,-4.916030534351145,0.5219359619140624,0.02154781494140625,9.45470235595703,24.81235294117647
2025-10-20T13:54:07.295241,-12.992366412213741,1.381679389312977,-4.9465648854961835,0.4572925170898437,0.0,9.37808790283203,25.000588235294117
2025-10-20T13:54:07.312098,-12.694656488549619,1.297709923664122,-4.961832061068702,0.4908113403320312,-0.023942016601562498,9.447519750976562,24.906470588235294
2025-10-20T13:54:07.328942,-12.19083969465649,1.2671755725190839,-5.0458015267175576,0.5578489868164063,-0.033518823242187495,9.576806640625,24.906470588235294
2025-10-20T13:54:07.345787,-11.458015267175572,1.1068702290076335,-5.106870229007634,0.46686932373046874,-0.09576806640624999,9.37808790283203,24.906470588235294
2025-10-20T13:54:07.362646,-10.549618320610687,1.3206106870229009,-5.351145038167939,0.43574470214843747,-0.06943184814453125,9.581595043945311,24.81235294117647
2025-10-20T13:54:07.379535,-9.854961832061068,1.0687022900763359,-5.312977099236641,0.48123453369140623,-0.1388636962890625,9.45470235595703,24.859411764705882
2025-10-20T13:54:07.396416,-8.923664122137405,0.9770992366412213,-5.282442748091603,0.43574470214843747,-0.1580173095703125,9.557653027343749,24.953529411764706
2025-10-20T13:54:07.413271,-7.8396946564885495,0.9847328244274809,-5.450381679389313,0.47644613037109373,-0.14604630126953125,9.5001921875,24.953529411764706
2025-10-20T13:54:07.430128,-6.549618320610687,0.916030534351145,-5.3816793893129775,0.45010991210937495,-0.17238251953125,9.442731347656249,24.859411764705882
2025-10-20T13:54:07.446983,-5.312977099236641,0.9389312977099237,-5.595419847328245,0.4477157104492187,-0.14604630126953125,9.387664709472656,24.953529411764706
2025-10-20T13:54:07.463852,-3.7938931297709924,0.6946564885496184,-5.488549618320611,0.488417138671875,-0.21787235107421873,9.361328491210937,24.859411764705882
2025-10-20T13:54:07.480709,-2.4427480916030535,0.8015267175572519,-5.732824427480916,0.4525041137695312,-0.17238251953125,9.244012609863281,24.953529411764706
2025-10-20T13:54:07.497572,-0.8244274809160306,0.7099236641221374,-5.763358778625954,0.5051765502929687,-0.17238251953125,9.303867651367186,25.000588235294117
2025-10-20T13:54:07.514427,0.31297709923664124,0.8625954198473282,-5.824427480916031,0.49799394531249996,-0.07422025146484375,9.334992272949219,24.906470588235294
2025-10-20T13:54:07.531279,1.8854961832061068,0.6870229007633588,-5.977099236641221,0.47884033203125,-0.13646949462890623,9.354145886230468,24.906470588235294
2025-10-20T13:54:07.548133,3.0229007633587788,0.5114503816793893,-5.9465648854961835,0.51714755859375,-0.0383072265625,9.241618408203124,24.906470588235294
2025-10-20T13:54:07.565001,4.213740458015267,0.3893129770992366,-6.106870229007634,0.5458779785156249,-0.0526724365234375,9.289502441406249,24.906470588235294
2025-10-20T13:54:07.581860,5.206106870229007,0.4198473282442748,-6.1603053435114505,0.4836287353515625,0.0143652099609375,9.337386474609374,24.906470588235294
2025-10-20T13:54:07.598710,5.770992366412214,0.33587786259541985,-6.137404580152672,0.44053310546874996,-0.047884033203124995,9.418789331054686,25.000588235294117
2025-10-20T13:54:07.615563,6.5038167938931295,0.17557251908396945,-6.0534351145038165,0.5003881469726562,-0.02154781494140625,9.485826977539062,24.906470588235294
2025-10-20T13:54:07.632417,6.587786259541985,1.900763358778626,-6.152671755725191,0.5051765502929687,0.028730419921875,9.435548742675781,25.000588235294117
2025-10-20T13:54:07.649271,6.717557251908397,-0.10687022900763359,-6.198473282442748,0.5147533569335937,0.028730419921875,9.543287817382812,24.906470588235294
2025-10-20T13:54:07.666211,6.648854961832061,-0.1450381679389313,-6.145038167938932,0.5147533569335937,0.033518823242187495,9.5001921875,24.953529411764706
2025-10-20T13:54:07.683079,6.122137404580153,-0.48854961832061067,-6.076335877862595,0.5985504150390625,0.0526724365234375,9.425971936035156,24.859411764705882
2025-10-20T13:54:07.699916,6.305343511450381,-0.366412213740458,-6.015267175572519,0.584185205078125,0.0383072265625,9.344569079589844,24.859411764705882
2025-10-20T13:54:07.716778,6.396946564885496,-0.33587786259541985,-5.984732824427481,0.5219359619140624,0.0383072265625,9.215282189941405,24.953529411764706
2025-10-20T13:54:07.733643,6.534351145038168,-0.4732824427480916,-6.236641221374046,0.51714755859375,0.031124621582031248,9.193734375,24.953529411764706
2025-10-20T13:54:07.750492,6.290076335877862,-0.648854961832061,-6.221374045801527,0.507570751953125,0.05027823486328125,9.315838659667968,24.953529411764706
2025-10-20T13:54:07.767350,6.0534351145038165,-0.8244274809160306,-6.374045801526718,0.46686932373046874,0.04548983154296875,9.236830004882812,24.953529411764706
2025-10-20T13:54:07.784200,6.213740458015267,-0.7022900763358778,-6.290076335877862,0.5267243652343749,0.09816226806640624,9.162609753417968,24.953529411764706
2025-10-20T13:54:07.801102,6.320610687022901,-0.6183206106870229,-6.419847328244275,0.5219359619140624,0.04548983154296875,9.162609753417968,25.000588235294117
2025-10-20T13:54:07.817992,6.312977099236641,-0.35877862595419846,-6.465648854961832,0.5410895751953124,0.040701428222656245,9.272743029785156,24.906470588235294
2025-10-20T13:54:07.834888,5.9465648854961835,-0.549618320610687,-6.587786259541985,0.5746083984375,0.04548983154296875,9.279925634765624,24.953529411764706
2025-10-20T13:54:07.851790,5.824427480916031,-0.44274809160305345,-6.595419847328245,0.5770026000976562,0.0383072265625,9.133879333496093,24.953529411764706
2025-10-20T13:54:07.868745,5.961832061068702,-0.2366412213740458,-6.702290076335878,0.5123591552734374,0.0383072265625,9.141061938476563,24.906470588235294
2025-10-20T13:54:07.885607,6.290076335877862,-0.2595419847328244,-6.702290076335878,0.5243301635742187,0.06943184814453125,9.112331518554686,24.906470588235294
2025-10-20T13:54:07.902460,6.145038167938932,-0.1450381679389313,-6.977099236641221,0.51714755859375,0.040701428222656245,8.89924757080078,25.000588235294117
2025-10-20T13:54:07.919392,5.778625954198473,-1.9312977099236641,-7.0,0.5865794067382812,0.06703764648437499,9.088389501953124,24.953529411764706
2025-10-20T13:54:07.936253,5.885496183206107,0.3816793893129771,-7.076335877862595,0.5674257934570313,0.07900865478515624,9.030928662109375,24.859411764705882
2025-10-20T13:54:07.953103,5.977099236641221,0.5877862595419847,-7.175572519083969,0.565031591796875,0.08379705810546874,9.114725720214842,24.859411764705882
2025-10-20T13:54:07.969965,5.557251908396947,0.6030534351145038,-7.152671755725191,0.5722141967773438,0.08858546142578125,8.894459167480468,24.859411764705882
2025-10-20T13:54:07.987941,5.198473282442748,0.7404580152671756,-7.259541984732825,0.5315127685546874,0.14125789794921875,9.006986645507812,24.906470588235294
2025-10-20T13:54:08.004833,4.862595419847328,0.8244274809160306,-7.473282442748092,0.5291185668945312,0.11731588134765625,9.02135185546875,24.953529411764706
2025-10-20T13:54:08.021689,4.67175572519084,1.0,-7.427480916030534,0.5243301635742187,0.1388636962890625,9.069235888671875,24.859411764705882
2025-10-20T13:54:08.038555,4.030534351145038,1.1755725190839694,-7.4961832061068705,0.5530605834960938,0.1149216796875,9.138667736816405,24.859411764705882
2025-10-20T13:54:08.055437,3.145038167938931,1.3511450381679388,-7.6183206106870225,0.48123453369140623,0.1771709228515625,9.167398156738281,24.953529411764706
2025-10-20T13:54:08.072314,2.145038167938931,1.0534351145038168,-7.595419847328245,0.5698199951171875,0.1149216796875,9.287108239746093,24.953529411764706
2025-10-20T13:54:08.089174,0.9465648854961832,1.3053435114503817,-7.587786259541985,0.6105214233398437,0.24660277099609373,9.229647399902344,24.859411764705882
2025-10-20T13:54:08.106028,-0.19083969465648856,1.4045801526717556,-7.633587786259542,0.5793968017578125,0.23702596435546874,9.34696328125,24.953529411764706
2025-10-20T13:54:08.122894,-1.7557251908396947,1.534351145038168,-7.526717557251908,0.5195417602539062,0.20829554443359374,9.296685046386719,25.000588235294117
2025-10-20T13:54:08.139750,-3.0,1.618320610687023,-7.442748091603053,0.47644613037109373,0.1771709228515625,9.282319836425781,24.906470588235294
2025-10-20T13:54:08.156603,-4.229007633587786,1.633587786259542,-7.519083969465649,0.5315127685546874,0.316034619140625,9.323021264648437,24.81235294117647
2025-10-20T13:54:08.173457,-5.977099236641221,1.4732824427480915,-7.435114503816794,0.4955997436523437,0.3112462158203125,9.411606726074218,24.906470588235294
2025-10-20T13:54:08.190310,-7.809160305343512,1.1374045801526718,-7.129770992366412,0.5746083984375,0.2825157958984375,9.524134204101562,24.906470588235294
2025-10-20T13:54:08.207162,-8.793893129770993,-1.6793893129770991,-6.923664122137405,0.8307879760742187,0.2154781494140625,9.318232861328125,24.906470588235294
2025-10-20T13:54:08.224038,-12.106870229007633,1.1603053435114503,-7.114503816793893,0.36631285400390623,0.2825157958984375,9.342174877929686,24.81235294117647
2025-10-20T13:54:08.240950,-14.664122137404581,0.9923664122137404,-6.786259541984733,0.41898529052734373,0.33039982910156246,9.588777648925781,24.81235294117647
2025-10-20T13:54:08.257825,-16.34351145038168,0.549618320610687,-6.374045801526718,0.43574470214843747,0.3016694091796875,9.464279162597656,24.81235294117647
2025-10-20T13:54:08.274719,-17.9618320610687,0.2748091603053435,-6.206106870229007,0.6009446166992187,0.430956298828125,9.588777648925781,24.953529411764706
2025-10-20T13:54:08.291587,-19.83969465648855,0.16793893129770993,-5.7251908396946565,0.5578489868164063,0.41419688720703124,9.797073193359374,24.859411764705882
2025-10-20T13:54:08.308469,-21.82442748091603,-0.1297709923664122,-5.320610687022901,0.59376201171875,0.39983167724609375,9.674968908691406,24.859411764705882
2025-10-20T13:54:08.325337,-23.16030534351145,-0.2900763358778626,-4.862595419847328,0.5363011718749999,0.4429273071289062,9.672574707031249,24.906470588235294
2025-10-20T13:54:08.342189,-24.0,-0.6946564885496184,-4.450381679389313,0.4955997436523437,0.41419688720703124,9.679757312011718,24.906470588235294
2025-10-20T13:54:08.359039,-25.18320610687023,-0.8473282442748091,-3.4122137404580153,0.5243301635742187,0.42377369384765623,9.677363110351562,24.906470588235294
2025-10-20T13:54:08.375899,-26.671755725190838,-1.3969465648854962,-2.595419847328244,0.7278373046875,0.5793968017578125,9.698910925292969,25.000588235294117
2025-10-20T13:54:08.392750,-26.748091603053435,-1.4885496183206106,-0.9770992366412213,0.48123453369140623,0.6847416748046875,9.763554370117188,24.906470588235294
2025-10-20T13:54:08.409602,-26.450381679389313,-1.7099236641221374,0.20610687022900764,0.5674257934570313,0.5027823486328125,9.78031378173828,24.906470588235294
2025-10-20T13:54:08.426450,-26.763358778625953,-2.3740458015267176,1.633587786259542,0.7206546997070312,0.27293898925781246,9.777919580078125,24.906470588235294
2025-10-20T13:54:08.443320,-26.709923664122137,-2.030534351145038,2.8473282442748094,0.5865794067382812,0.15562310791015624,9.794678991699218,24.906470588235294
2025-10-20T13:54:08.460180,-25.84732824427481,-2.2061068702290076,3.450381679389313,0.5913678100585937,-0.12210428466796874,9.397241516113281,25.000588235294117
2025-10-20T13:54:08.477052,-23.786259541984734,-2.49618320610687,4.038167938931298,0.48123453369140623,-0.12210428466796874,9.428366137695312,24.953529411764706
2025-10-20T13:54:08.493912,-21.12213740458015,-2.8625954198473282,4.305343511450381,0.7158662963867187,-0.2705447875976562,9.583989245605467,24.953529411764706
2025-10-20T13:54:08.510773,-18.82442748091603,-3.2748091603053435,4.297709923664122,0.584185205078125,-0.3280056274414062,9.560047229003906,24.859411764705882
2025-10-20T13:54:08.527634,-16.045801526717558,-3.183206106870229,4.33587786259542,0.5530605834960938,-0.44532150878906246,9.244012609863281,24.859411764705882
2025-10-20T13:54:08.544487,-12.13740458015267,-3.198473282442748,3.83206106870229,0.4955997436523437,-0.5195417602539062,9.255983618164063,24.953529411764706
2025-10-20T13:54:08.561329,-7.404580152671755,-2.900763358778626,3.450381679389313,0.5123591552734374,-0.5746083984375,9.212887988281249,24.953529411764706
2025-10-20T13:54:08.578188,-3.519083969465649,-2.9160305343511452,2.8473282442748094,0.47884033203125,-0.4908113403320312,9.042899670410156,24.953529411764706
2025-10-20T13:54:08.595041,-1.8625954198473282,-2.2519083969465647,2.5572519083969465,0.507570751953125,-0.6560112548828124,9.088389501953124,24.859411764705882
2025-10-20T13:54:08.611893,5.290076335877862,-2.183206106870229,1.9541984732824427,0.49320554199218747,-0.7637503295898437,9.03332286376953,24.859411764705882
2025-10-20T13:54:08.628746,10.977099236641221,-2.1374045801526718,1.2061068702290076,0.5602431884765625,-0.6392518432617187,9.014169250488282,24.953529411764706
2025-10-20T13:54:08.645663,15.465648854961833,-1.4961832061068703,0.6106870229007634,0.5817910034179687,-0.6775590698242188,8.892064965820312,24.906470588235294
2025-10-20T13:54:08.662561,19.442748091603054,-0.42748091603053434,0.03816793893129771,0.5267243652343749,-0.74699091796875,8.786720092773438,24.906470588235294
2025-10-20T13:54:08.679467,23.641221374045802,-0.1984732824427481,-0.7022900763358778,0.4740519287109375,-0.584185205078125,8.590395556640624,24.76529411764706
2025-10-20T13:54:08.696356,27.916030534351144,0.16030534351145037,-1.4427480916030535,0.5147533569335937,-0.5195417602539062,8.93755479736328,24.953529411764706
2025-10-20T13:54:08.713248,30.83206106870229,0.42748091603053434,-2.1297709923664123,0.45010991210937495,-0.40940848388671874,8.985438830566405,25.000588235294117
2025-10-20T13:54:08.730110,32.6412213740458,0.5190839694656488,-2.3740458015267176,0.4644751220703125,-0.373495458984375,8.750807067871094,24.81235294117647
2025-10-20T13:54:08.746955,34.98473282442748,0.7175572519083969,-3.1526717557251906,0.5051765502929687,-0.40940848388671874,8.856151940917968,24.906470588235294
2025-10-20T13:54:08.763807,36.67175572519084,1.3129770992366412,-3.5801526717557253,0.48123453369140623,-0.2705447875976562,8.597578161621094,24.906470588235294
2025-10-20T13:54:08.780726,36.900763358778626,2.0763358778625953,-4.091603053435114,0.4908113403320312,-0.12449848632812499,8.997409838867187,24.953529411764706
2025-10-20T13:54:08.797583,36.7557251908397,2.2442748091603053,-4.396946564885496,0.4955997436523437,-0.0430956298828125,8.89924757080078,24.859411764705882
2025-10-20T13:54:08.814434,36.06106870229008,2.1603053435114505,-4.862595419847328,0.47884033203125,0.11731588134765625,9.038111267089842,24.859411764705882
2025-10-20T13:54:08.831302,34.534351145038165,2.2519083969465647,-4.900763358778626,0.46686932373046874,0.20350714111328125,9.210493786621093,24.953529411764706
2025-10-20T13:54:08.849536,31.770992366412212,2.5419847328244276,-4.984732824427481,0.5698199951171875,0.44053310546874996,9.248801013183593,25.000588235294117
2025-10-20T13:54:08.866435,29.00763358778626,2.7709923664122136,-4.923664122137405,0.5674257934570313,0.5099649536132812,9.311050256347656,24.859411764705882
2025-10-20T13:54:08.883320,25.549618320610687,3.572519083969466,-4.977099236641221,0.6009446166992187,0.9121908325195311,9.349357482910156,24.953529411764706
2025-10-20T13:54:08.900176,20.954198473282442,3.1297709923664123,-4.656488549618321,0.3184288208007812,0.842758984375,9.409212524414063,24.953529411764706
2025-10-20T13:54:08.917051,15.801526717557252,2.7099236641221376,-4.099236641221374,0.5770026000976562,0.8355763793945312,9.445125549316407,24.859411764705882
2025-10-20T13:54:08.933912,10.778625954198473,2.5419847328244276,-3.5877862595419847,0.5865794067382812,0.928950244140625,9.361328491210937,24.953529411764706
2025-10-20T13:54:08.950763,6.33587786259542,2.213740458015267,-2.885496183206107,0.5602431884765625,0.9816226806640624,9.622296472167967,24.859411764705882
2025-10-20T13:54:08.967613,0.6183206106870229,2.2595419847328246,-1.8625954198473282,0.5746083984375,0.9864110839843749,9.56962403564453,24.906470588235294
2025-10-20T13:54:08.984474,-4.66412213740458,1.450381679389313,-1.0458015267175573,0.6009446166992187,0.9624690673828125,9.885658654785155,24.906470588235294
2025-10-20T13:54:09.001328,-9.893129770992367,2.0610687022900764,0.05343511450381679,0.4572925170898437,1.0271125122070313,9.521740002441407,24.906470588235294
2025-10-20T13:54:09.018179,-13.961832061068701,1.213740458015267,0.6335877862595419,0.74699091796875,0.97683427734375,9.732429748535155,25.000588235294117
2025-10-20T13:54:09.035046,-15.725190839694656,0.6717557251908397,1.8396946564885497,0.6009446166992187,1.0630255371093749,9.732429748535155,24.81235294117647
2025-10-20T13:54:09.051900,-22.099236641221374,0.5419847328244275,2.6412213740458017,0.49320554199218747,0.8571241943359375,9.78031378173828,24.906470588235294
2025-10-20T13:54:09.068757,-25.977099236641223,0.21374045801526717,3.0,0.5793968017578125,0.8762778076171874,9.627084875488281,24.953529411764706
2025-10-20T13:54:09.085623,-28.35114503816794,0.21374045801526717,3.6259541984732824,0.5339069702148437,0.6296750366210937,9.60793126220703,25.04764705882353
2025-10-20T13:54:09.102512,-29.893129770992367,0.2595419847328244,3.8702290076335877,0.5889736083984375,0.4908113403320312,9.509768994140625,24.953529411764706
2025-10-20T13:54:09.119399,-31.022900763358777,1.0763358778625953,3.816793893129771,0.5267243652343749,0.1484405029296875,9.327809667968749,24.906470588235294
2025-10-20T13:54:09.136255,-32.13740458015267,0.7938931297709924,3.801526717557252,0.5291185668945312,-0.21787235107421873,10.014945544433592,24.906470588235294
2025-10-20T13:54:09.153107,-33.17557251908397,1.1984732824427482,3.7480916030534353,0.5530605834960938,0.19393033447265623,9.387664709472656,25.000588235294117
2025-10-20T13:54:09.169962,-32.19847328244275,-0.5267175572519084,3.7022900763358777,0.5865794067382812,-0.1484405029296875,9.457096557617186,24.906470588235294
2025-10-20T13:54:09.186823,-30.229007633587788,-0.549618320610687,3.5572519083969465,0.6536170532226562,-0.24660277099609373,9.574412438964844,24.906470588235294
2025-10-20T13:54:09.203674,-28.603053435114504,-0.3511450381679389,3.1068702290076335,0.5746083984375,-0.40462008056640625,9.368511096191405,24.906470588235294
2025-10-20T13:54:09.220532,-27.083969465648856,0.648854961832061,2.763358778625954,0.5674257934570313,-0.3232172241210937,9.141061938476563,24.906470588235294
2025-10-20T13:54:09.237457,-24.580152671755727,1.3358778625954197,2.6412213740458017,0.5386953735351562,-0.5027823486328125,9.035717065429687,24.953529411764706
2025-10-20T13:54:09.254322,-20.85496183206107,2.0610687022900764,2.1603053435114505,0.430956298828125,-0.584185205078125,8.951920007324219,24.953529411764706
2025-10-20T13:54:09.271188,-17.31297709923664,1.465648854961832,1.7404580152671756,0.411802685546875,-0.5674257934570313,9.162609753417968,24.906470588235294
2025-10-20T13:54:09.288060,-14.86259541984733,0.9923664122137404,1.381679389312977,0.47644613037109373,-0.5889736083984375,9.200916979980468,25.000588235294117
2025-10-20T13:54:09.304911,-12.007633587786259,0.3053435114503817,1.083969465648855,0.4165910888671875,-0.5530605834960938,9.093177905273437,25.000588235294117
2025-10-20T13:54:09.321782,-8.007633587786259,-0.030534351145038167,0.6641221374045801,0.41419688720703124,-0.4740519287109375,8.743624462890624,24.906470588235294
2025-10-20T13:54:09.338647,-4.809160305343512,-0.5725190839694656,0.0916030534351145,0.4381389038085937,-0.411802685546875,9.126696728515624,24.906470588235294
2025-10-20T13:54:09.355498,-2.648854961832061,-0.3282442748091603,-0.21374045801526717,0.49320554199218747,-0.4213794921875,9.179369165039063,25.000588235294117
2025-10-20T13:54:09.372347,-0.8320610687022901,0.04580152671755725,-0.549618320610687,0.43574470214843747,-0.3184288208007812,8.904035974121093,24.81235294117647
2025-10-20T13:54:09.389199,1.2595419847328244,0.26717557251908397,-0.648854961832061,0.4333505004882812,-0.24181436767578124,9.009380847167968,24.906470588235294
2025-10-20T13:54:09.406047,3.435114503816794,-0.37404580152671757,-1.015267175572519,0.40462008056640625,-0.1484405029296875,9.153032946777342,24.906470588235294
2025-10-20T13:54:09.422896,4.0534351145038165,-1.1526717557251909,-1.1450381679389312,0.41419688720703124,0.00239420166015625,9.255983618164063,24.859411764705882
2025-10-20T13:54:09.439767,4.251908396946565,-0.015267175572519083,-1.0916030534351144,0.4381389038085937,0.0,9.030928662109375,24.953529411764706
2025-10-20T13:54:09.456627,4.641221374045801,-2.0763358778625953,-1.0610687022900764,0.4572925170898437,0.229843359375,9.093177905273437,24.859411764705882
2025-10-20T13:54:09.473497,5.786259541984733,-2.3969465648854964,-1.015267175572519,0.4955997436523437,0.12210428466796874,9.150638745117186,24.906470588235294
2025-10-20T13:54:09.490453,5.480916030534351,-2.053435114503817,-0.7557251908396947,0.4740519287109375,0.18914193115234373,9.248801013183593,25.000588235294117
2025-10-20T13:54:09.507591,4.3816793893129775,-1.8244274809160306,-0.3435114503816794,0.5099649536132812,0.4477157104492187,9.258377819824219,24.953529411764706
2025-10-20T13:54:09.524473,3.717557251908397,-0.022900763358778626,-0.15267175572519084,0.5243301635742187,0.3854664672851562,9.052476477050782,24.953529411764706
2025-10-20T13:54:09.541345,3.732824427480916,-2.198473282442748,0.11450381679389313,0.4525041137695312,0.2920926025390625,9.04050546875,24.953529411764706
2025-10-20T13:54:09.558220,3.595419847328244,-2.7022900763358777,0.549618320610687,0.5530605834960938,0.3687070556640625,9.485826977539062,25.000588235294117
2025-10-20T13:54:09.575076,2.2748091603053435,-2.7251908396946565,0.8778625954198473,0.5243301635742187,0.40222587890625,9.483432775878907,24.906470588235294
2025-10-20T13:54:09.591932,1.4732824427480915,-2.3435114503816794,1.0763358778625953,0.5793968017578125,0.3758896606445312,9.198522778320312,24.906470588235294
2025-10-20T13:54:09.608785,1.7251908396946565,-2.1297709923664123,1.0916030534351144,0.6009446166992187,0.33039982910156246,9.641450085449218,25.000588235294117
2025-10-20T13:54:09.625635,1.618320610687023,-1.3969465648854962,0.9770992366412213,0.5889736083984375,0.3591302490234375,9.526528405761718,25.000588235294117
2025-10-20T13:54:09.642563,0.5572519083969466,-0.5190839694656488,0.9312977099236641,0.6368576416015624,0.32082302246093747,9.593566052246093,24.953529411764706
2025-10-20T13:54:09.659427,-0.2595419847328244,-0.3511450381679389,0.9465648854961832,0.5817910034179687,0.3280056274414062,9.6917283203125,24.859411764705882
2025-10-20T13:54:09.676299,-0.13740458015267176,-0.4580152671755725,0.5572519083969466,0.5506663818359374,0.2154781494140625,9.658209497070311,24.859411764705882
2025-10-20T13:54:09.693169,0.7557251908396947,-0.33587786259541985,0.4122137404580153,0.5889736083984375,0.14604630126953125,9.65342109375,24.906470588235294
2025-10-20T13:54:09.711196,1.3282442748091603,0.19083969465648856,0.015267175572519083,0.5961562133789062,-0.011971008300781249,9.68454571533203,24.953529411764706
2025-10-20T13:54:09.728083,2.0763358778625953,1.1526717557251909,-0.24427480916030533,0.7278373046875,-0.10773907470703124,9.612719665527344,24.906470588235294
2025-10-20T13:54:09.744935,3.4580152671755724,1.900763358778626,-0.6641221374045801,0.6009446166992187,-0.24899697265624998,9.473855969238281,25.000588235294117
2025-10-20T13:54:09.761788,5.549618320610687,2.6564885496183206,-0.9618320610687023,0.5530605834960938,-0.3447650390625,9.394847314453125,25.000588235294117
2025-10-20T13:54:09.778633,7.2748091603053435,2.9923664122137406,-1.1221374045801527,0.5434837768554687,-0.373495458984375,9.363722692871093,24.906470588235294
2025-10-20T13:54:09.795491,9.091603053435115,3.053435114503817,-1.4427480916030535,0.49799394531249996,-0.411802685546875,9.327809667968749,24.906470588235294
2025-10-20T13:54:09.812338,11.274809160305344,2.885496183206107,-1.8549618320610688,0.4525041137695312,-0.43574470214843747,9.287108239746093,24.906470588235294
2025-10-20T13:54:09.829175,13.404580152671755,3.1374045801526718,-2.2290076335877864,0.39743747558593745,-0.33758243408203126,9.327809667968749,25.000588235294117
2025-10-20T13:54:09.846024,15.045801526717558,3.3053435114503817,-2.5114503816793894,0.488417138671875,-0.40462008056640625,9.236830004882812,24.906470588235294
2025-10-20T13:54:09.862868,16.786259541984734,3.7251908396946565,-2.7099236641221376,0.47884033203125,-0.39264907226562495,9.030928662109375,25.000588235294117
2025-10-20T13:54:09.879717,18.580152671755727,3.900763358778626,-3.1068702290076335,0.42377369384765623,-0.29448680419921874,9.138667736816405,24.906470588235294
2025-10-20T13:54:09.896564,17.587786259541986,3.3282442748091605,-3.3969465648854964,0.469263525390625,-0.2059013427734375,9.299079248046874,24.953529411764706
2025-10-20T13:54:09.913408,19.763358778625953,2.9083969465648853,-3.450381679389313,0.4525041137695312,-0.08858546142578125,9.196128576660156,24.859411764705882
2025-10-20T13:54:09.930252,19.389312977099237,2.3740458015267176,-3.564885496183206,0.4525041137695312,0.06703764648437499,9.272743029785156,24.953529411764706
2025-10-20T13:54:09.947095,18.6793893129771,2.1755725190839694,-3.5877862595419847,0.47165772705078124,0.08379705810546874,9.265560424804686,24.953529411764706
2025-10-20T13:54:09.963992,17.3206106870229,2.0839694656488548,-3.6106870229007635,0.4908113403320312,0.17477672119140625,9.260772021484375,24.953529411764706
2025-10-20T13:54:09.980859,14.916030534351146,1.83206106870229,-3.198473282442748,0.4477157104492187,0.35194764404296874,9.586383447265625,24.953529411764706
2025-10-20T13:54:09.997715,12.007633587786259,1.7709923664122138,-3.0076335877862594,0.584185205078125,0.32082302246093747,9.488221179199218,24.906470588235294
2025-10-20T13:54:10.014562,9.32824427480916,1.1603053435114503,-2.4732824427480917,0.5410895751953124,0.5003881469726562,9.390058911132812,24.81235294117647
2025-10-20T13:54:10.031402,6.396946564885496,0.7862595419847328,-2.267175572519084,0.5219359619140624,0.6272808349609375,9.521740002441407,25.000588235294117
2025-10-20T13:54:10.048252,2.8091603053435112,0.6870229007633588,-1.8396946564885497,0.5530605834960938,0.622492431640625,9.739612353515625,24.906470588235294
2025-10-20T13:54:10.065088,-0.9465648854961832,0.6259541984732825,-1.213740458015267,0.4644751220703125,0.7206546997070312,9.655815295410155,24.906470588235294
2025-10-20T13:54:10.081933,-4.6183206106870225,0.7786259541984732,-1.0534351145038168,0.5985504150390625,0.8954314208984374,9.583989245605467,25.000588235294117
2025-10-20T13:54:10.098783,-5.984732824427481,0.7251908396946565,-0.5419847328244275,0.6200982299804687,0.6488286499023437,9.504980590820312,24.906470588235294
2025-10-20T13:54:10.115630,-11.595419847328245,0.9083969465648855,-0.33587786259541985,0.584185205078125,0.7900865478515624,9.5384994140625,25.000588235294117
2025-10-20T13:54:10.132475,-15.282442748091603,0.5954198473282443,-0.16793893129770993,0.7302315063476562,0.8499415893554687,9.557653027343749,25.000588235294117
2025-10-20T13:54:10.149320,-19.015267175572518,0.5419847328244275,0.3435114503816794,0.55545478515625,0.70868369140625,9.485826977539062,25.000588235294117
2025-10-20T13:54:10.166162,-21.80916030534351,0.22900763358778625,0.32061068702290074,0.5698199951171875,0.6464344482421874,9.524134204101562,24.906470588235294
2025-10-20T13:54:10.183013,-24.083969465648856,0.17557251908396945,0.6183206106870229,0.5123591552734374,0.5722141967773438,9.363722692871093,24.906470588235294
2025-10-20T13:54:10.199858,-26.396946564885496,0.17557251908396945,0.7709923664122137,0.51714755859375,0.42377369384765623,9.488221179199218,24.906470588235294
2025-10-20T13:54:10.216780,-28.236641221374047,0.16030534351145037,0.7251908396946565,0.5315127685546874,0.23702596435546874,9.342174877929686,24.859411764705882
2025-10-20T13:54:10.233665,-29.374045801526716,0.12213740458015267,0.6564885496183206,0.5602431884765625,0.19153613281249998,9.351751684570312,24.953529411764706
2025-10-20T13:54:10.250514,-29.81679389312977,-0.05343511450381679,0.5419847328244275,0.45968671875,0.062249243164062495,9.191340173339842,24.953529411764706
2025-10-20T13:54:10.267370,-29.64885496183206,-0.25190839694656486,0.44274809160305345,0.4740519287109375,-0.10773907470703124,9.277531433105468,24.859411764705882
2025-10-20T13:54:10.284224,-29.0381679389313,-0.6641221374045801,0.3053435114503817,0.49320554199218747,-0.16519991455078123,9.042899670410156,24.953529411764706
2025-10-20T13:54:10.301084,-27.732824427480917,-1.015267175572519,0.07633587786259542,0.41419688720703124,-0.21787235107421873,8.939948999023438,24.953529411764706
2025-10-20T13:54:10.317935,-25.450381679389313,-1.1755725190839694,-0.19083969465648856,0.45489831542968745,-0.316034619140625,8.908824377441405,24.906470588235294
2025-10-20T13:54:10.334842,-23.549618320610687,-1.2900763358778626,-0.5038167938931297,0.3758896606445312,-0.354341845703125,8.89924757080078,24.906470588235294
2025-10-20T13:54:10.351724,-21.061068702290076,-1.4045801526717556,-0.8320610687022901,0.4165910888671875,-0.4165910888671875,8.892064965820312,24.906470588235294
2025-10-20T13:54:10.368597,-18.244274809160306,-1.702290076335878,-1.2061068702290076,0.3758896606445312,-0.3447650390625,8.978256225585938,25.000588235294117
2025-10-20T13:54:10.385476,-15.351145038167939,-2.1603053435114505,-1.6717557251908397,0.3016694091796875,-0.33758243408203126,8.877699755859375,24.953529411764706
2025-10-20T13:54:10.402346,-12.86259541984733,-2.549618320610687,-1.717557251908397,0.4644751220703125,-0.3854664672851562,8.865728747558594,24.953529411764706
2025-10-20T13:54:10.419195,-10.633587786259541,-3.0763358778625953,-2.0763358778625953,0.3806780639648437,-0.3327940307617187,8.935160595703124,24.953529411764706
2025-10-20T13:54:10.436048,-8.0,-3.2290076335877864,-2.404580152671756,0.39983167724609375,-0.3184288208007812,9.112331518554686,25.04764705882353
2025-10-20T13:54:10.452895,-7.755725190839694,-3.7022900763358777,-2.6259541984732824,0.43574470214843747,-0.2825157958984375,9.0021982421875,24.953529411764706
2025-10-20T13:54:10.469740,-3.7557251908396947,-3.618320610687023,-2.7099236641221376,0.44053310546874996,-0.14125789794921875,9.095572106933593,24.953529411764706
2025-10-20T13:54:10.486662,-2.045801526717557,-3.854961832061069,-2.8625954198473282,0.5219359619140624,-0.1388636962890625,9.169792358398437,25.000588235294117
2025-10-20T13:54:10.503524,-0.4961832061068702,-3.786259541984733,-2.687022900763359,0.5506663818359374,-0.05985504150390625,9.124302526855468,24.906470588235294
2025-10-20T13:54:10.520374,1.099236641221374,-3.9618320610687023,-2.618320610687023,0.48123453369140623,0.0143652099609375,9.282319836425781,24.81235294117647
2025-10-20T13:54:10.537217,2.6564885496183206,-3.9770992366412212,-2.1297709923664123,0.4860229370117187,0.047884033203124995,9.294290844726563,24.906470588235294
2025-10-20T13:54:10.555481,3.6259541984732824,-3.7480916030534353,-1.5801526717557253,0.6153098266601562,-0.00239420166015625,9.373299499511718,24.906470588235294
2025-10-20T13:54:10.572364,4.687022900763359,-3.7938931297709924,-1.0229007633587786,0.622492431640625,0.239420166015625,9.382876306152344,24.906470588235294
2025-10-20T13:54:10.589226,6.076335877862595,-3.6717557251908395,-0.4732824427480916,0.48123453369140623,-0.06943184814453125,9.442731347656249,24.906470588235294
2025-10-20T13:54:10.606106,7.366412213740458,-3.0916030534351147,-0.03816793893129771,0.6823474731445313,-0.08140285644531249,9.457096557617186,24.906470588235294
2025-10-20T13:54:10.622962,8.13740458015267,-2.801526717557252,0.4961832061068702,0.5482721801757812,-0.06464344482421874,9.586383447265625,24.906470588235294
2025-10-20T13:54:10.639835,9.221374045801527,-2.687022900763359,0.7557251908396947,0.6177040283203125,-0.028730419921875,9.581595043945311,24.953529411764706
2025-10-20T13:54:10.656697,9.740458015267176,-2.5877862595419847,1.2748091603053435,0.5698199951171875,0.0143652099609375,9.72285294189453,24.953529411764706
2025-10-20T13:54:10.673571,9.977099236641221,-2.4580152671755724,1.1603053435114503,0.5865794067382812,0.00718260498046875,9.727641345214844,24.953529411764706
2025-10-20T13:54:10.690430,10.053435114503817,-1.9312977099236641,1.1145038167938932,0.6464344482421874,0.09337386474609374,9.758765966796874,24.953529411764706
2025-10-20T13:54:10.707298,10.083969465648854,-1.381679389312977,1.1908396946564885,0.6560112548828124,0.0909796630859375,9.773131176757811,24.859411764705882
2025-10-20T13:54:10.724164,10.312977099236642,-1.083969465648855,1.015267175572519,0.5865794067382812,0.011971008300781249,9.715670336914062,24.906470588235294
2025-10-20T13:54:10.741025,10.969465648854962,-0.8320610687022901,0.9389312977099237,0.6344634399414062,0.05027823486328125,9.634267480468749,24.906470588235294
2025-10-20T13:54:10.757876,11.893129770992367,-0.05343511450381679,0.45038167938931295,0.5770026000976562,0.0,9.368511096191405,24.81235294117647
2025-10-20T13:54:10.774722,12.84732824427481,0.4580152671755725,0.16793893129770993,0.5985504150390625,-0.00239420166015625,9.583989245605467,24.906470588235294
2025-10-20T13:54:10.791572,14.045801526717558,1.3358778625954197,-0.29770992366412213,0.5530605834960938,0.009576806640625,9.634267480468749,24.906470588235294
2025-10-20T13:54:10.808469,15.061068702290076,0.03816793893129771,-0.816793893129771,0.622492431640625,-0.033518823242187495,9.469067565917967,24.906470588235294
2025-10-20T13:54:10.825339,15.977099236641221,3.122137404580153,-1.4274809160305344,0.5339069702148437,-0.07900865478515624,9.296685046386719,25.04764705882353
2025-10-20T13:54:10.842208,16.786259541984734,3.6106870229007635,-1.83206106870229,0.5746083984375,-0.10295067138671875,9.244012609863281,24.953529411764706
2025-10-20T13:54:10.859067,17.763358778625953,4.282442748091603,-2.16793893129771,0.5458779785156249,-0.11252747802734374,9.404424121093749,24.859411764705882
2025-10-20T13:54:10.875935,18.396946564885496,4.648854961832061,-2.816793893129771,0.5386953735351562,-0.033518823242187495,9.279925634765624,24.953529411764706
2025-10-20T13:54:10.892794,18.587786259541986,4.916030534351145,-3.351145038167939,0.507570751953125,0.0,9.291896643066405,24.953529411764706
2025-10-20T13:54:10.909673,18.610687022900763,5.343511450381679,-3.6030534351145036,0.5315127685546874,0.0047884033203125,9.212887988281249,24.906470588235294
2025-10-20T13:54:10.926535,18.328244274809162,5.442748091603053,-4.038167938931298,0.4333505004882812,0.10773907470703124,9.076418493652342,25.000588235294117
2025-10-20T13:54:10.943384,18.106870229007633,5.961832061068702,-4.297709923664122,0.46208092041015625,0.04548983154296875,9.052476477050782,24.906470588235294
2025-10-20T13:54:10.960231,16.732824427480917,5.786259541984733,-4.587786259541985,0.51714755859375,0.21068974609375,8.793902697753905,24.906470588235294
2025-10-20T13:54:10.977077,14.610687022900763,6.099236641221374,-4.580152671755725,0.3711012573242187,0.5339069702148437,9.22485899658203,25.000588235294117
2025-10-20T13:54:10.993923,12.961832061068701,5.488549618320611,-4.763358778625954,0.4908113403320312,0.40462008056640625,9.291896643066405,25.000588235294117
2025-10-20T13:54:11.010775,10.877862595419847,5.366412213740458,-4.67175572519084,0.44053310546874996,0.3232172241210937,9.054870678710937,25.000588235294117
2025-10-20T13:54:11.027677,8.251908396946565,4.687022900763359,-4.458015267175573,0.4429273071289062,0.4525041137695312,8.89924757080078,25.000588235294117
2025-10-20T13:54:11.044544,5.961832061068702,4.396946564885496,-4.366412213740458,0.4955997436523437,0.603338818359375,9.10993731689453,25.000588235294117
2025-10-20T13:54:11.061399,3.0076335877862594,4.137404580152672,-4.122137404580153,0.45010991210937495,0.5291185668945312,9.054870678710937,24.906470588235294
2025-10-20T13:54:11.078288,0.48854961832061067,3.6564885496183206,-3.763358778625954,0.6057330200195312,0.4644751220703125,8.932766394042968,24.953529411764706
2025-10-20T13:54:11.095157,-2.786259541984733,3.0916030534351147,-3.2442748091603053,0.354341845703125,0.5985504150390625,9.119514123535156,24.953529411764706
2025-10-20T13:54:11.112057,-6.022900763358779,2.3282442748091605,-2.687022900763359,0.507570751953125,0.5961562133789062,9.179369165039063,24.906470588235294
2025-10-20T13:54:11.128919,-8.931297709923664,1.8931297709923665,-2.2900763358778624,0.469263525390625,0.612915625,9.090783703613281,24.906470588235294
2025-10-20T13:54:11.145772,-12.15267175572519,1.16793893129771,-1.8549618320610688,0.4836287353515625,0.5410895751953124,9.088389501953124,24.906470588235294
2025-10-20T13:54:11.162624,-15.282442748091603,0.5038167938931297,-1.1755725190839694,0.507570751953125,0.5410895751953124,9.246406811523437,24.906470588235294
2025-10-20T13:54:11.179534,-18.49618320610687,0.0916030534351145,-0.6259541984732825,0.4740519287109375,0.4860229370117187,9.236830004882812,24.906470588235294
2025-10-20T13:54:11.196422,-20.564885496183205,-0.7175572519083969,-0.35877862595419846,0.5267243652343749,0.5722141967773438,9.229647399902344,24.859411764705882
2025-10-20T13:54:11.213303,-23.03053435114504,-0.9236641221374046,-0.21374045801526717,0.6081272216796875,0.5578489868164063,9.488221179199218,24.953529411764706
2025-10-20T13:54:11.230229,-25.236641221374047,-1.3511450381679388,0.1450381679389313,0.5219359619140624,0.16041151123046873,9.409212524414063,25.000588235294117
2025-10-20T13:54:11.247111,-26.908396946564885,-1.4045801526717556,0.25190839694656486,0.5458779785156249,0.2537853759765625,9.433154541015625,24.906470588235294
2025-10-20T13:54:11.263978,-27.900763358778626,-1.6717557251908397,0.09923664122137404,0.55545478515625,0.023942016601562498,9.399635717773437,25.000588235294117
2025-10-20T13:54:11.280846,-28.00763358778626,-1.816793893129771,-0.03816793893129771,0.622492431640625,-0.00239420166015625,9.694122521972655,24.906470588235294
2025-10-20T13:54:11.297707,-25.48854961832061,-0.9694656488549618,-0.366412213740458,0.51714755859375,0.24181436767578124,10.081983190917969,24.859411764705882
2025-10-20T13:54:11.314582,-28.442748091603054,-1.6641221374045803,-0.2595419847328244,0.6775590698242188,0.20829554443359374,9.550470422363281,24.859411764705882
2025-10-20T13:54:11.331441,-28.34351145038168,-1.3740458015267176,-0.4122137404580153,0.469263525390625,-0.06943184814453125,9.375693701171874,24.953529411764706
2025-10-20T13:54:11.348362,-26.793893129770993,-3.8396946564885495,-0.9083969465648855,0.6057330200195312,-0.011971008300781249,9.832986218261718,25.04764705882353
2025-10-20T13:54:11.365218,-25.885496183206108,-1.7328244274809161,-1.2213740458015268,0.5315127685546874,0.033518823242187495,9.60793126220703,24.906470588235294
2025-10-20T13:54:11.382069,-25.740458015267176,-1.4885496183206106,-1.2366412213740459,0.5027823486328125,0.05985504150390625,9.581595043945311,25.000588235294117
2025-10-20T13:54:11.398920,-24.893129770992367,-0.648854961832061,-1.4885496183206106,0.5770026000976562,0.062249243164062495,9.588777648925781,24.906470588235294
2025-10-20T13:54:11.415818,-23.46564885496183,-0.5114503816793893,-1.9236641221374047,0.5243301635742187,0.05985504150390625,9.392453112792968,25.000588235294117
2025-10-20T13:54:11.432701,-22.259541984732824,-0.2595419847328244,-2.1603053435114505,0.5027823486328125,0.10773907470703124,9.34696328125,24.906470588235294
2025-10-20T13:54:11.449585,-21.38167938931298,-0.6259541984732825,-2.030534351145038,0.47165772705078124,0.16280571289062498,9.68454571533203,24.953529411764706
2025-10-20T13:54:11.466457,-20.69465648854962,-1.1068702290076335,-1.6946564885496183,0.5410895751953124,0.22026655273437498,9.801861596679688,24.953529411764706
2025-10-20T13:54:11.483319,-19.80916030534351,-1.6870229007633588,-1.4198473282442747,0.5602431884765625,0.1580173095703125,9.435548742675781,24.953529411764706
2025-10-20T13:54:11.500171,-18.65648854961832,-1.816793893129771,-0.7709923664122137,0.5793968017578125,0.41898529052734373,9.449913952636718,24.953529411764706
2025-10-20T13:54:11.517057,-17.84732824427481,-1.6793893129770991,-0.022900763358778626,0.6009446166992187,0.17238251953125,9.550470422363281,24.859411764705882
2025-10-20T13:54:11.533920,-15.80916030534351,-1.618320610687023,0.6259541984732825,0.5674257934570313,-0.033518823242187495,9.366116894531249,24.859411764705882
2025-10-20T13:54:11.550772,-14.076335877862595,-1.7709923664122138,1.1526717557251909,0.622492431640625,-0.023942016601562498,9.30147344970703,24.953529411764706
2025-10-20T13:54:11.567624,-11.251908396946565,-1.9083969465648856,1.748091603053435,0.612915625,-0.33039982910156246,9.430760339355468,24.906470588235294
2025-10-20T13:54:11.584476,-8.282442748091603,-2.16793893129771,0.06870229007633588,0.4836287353515625,-0.2753331909179687,9.363722692871093,24.906470588235294
2025-10-20T13:54:11.601330,-5.206106870229007,-2.6030534351145036,2.4427480916030535,0.5602431884765625,-0.46686932373046874,9.270348828125,24.906470588235294
2025-10-20T13:54:11.618182,-2.0381679389312977,-2.83206106870229,2.5267175572519083,0.47165772705078124,-0.49799394531249996,9.366116894531249,24.906470588235294
2025-10-20T13:54:11.636404,1.4122137404580153,-2.801526717557252,2.8091603053435112,0.55545478515625,-0.74699091796875,9.22485899658203,25.04764705882353
2025-10-20T13:54:11.653935,3.984732824427481,-2.816793893129771,2.572519083969466,0.5363011718749999,-0.6177040283203125,9.169792358398437,24.906470588235294
2025-10-20T13:54:11.670984,8.022900763358779,-2.900763358778626,2.2213740458015265,0.4165910888671875,-0.7062894897460937,9.272743029785156,24.906470588235294
2025-10-20T13:54:11.687864,13.49618320610687,-2.801526717557252,1.8854961832061068,0.39264907226562495,-0.5363011718749999,9.176974963378905,25.000588235294117
2025-10-20T13:54:11.704717,17.061068702290076,-2.954198473282443,1.2290076335877862,0.5674257934570313,-0.55545478515625,9.176974963378905,24.906470588235294
2025-10-20T13:54:11.721592,20.480916030534353,-3.3053435114503817,0.5267175572519084,0.40940848388671874,-0.63206923828125,9.131485131835937,24.906470588235294
2025-10-20T13:54:11.738432,23.81679389312977,-3.3893129770992365,-0.2366412213740458,0.46686932373046874,-0.5530605834960938,9.141061938476563,24.906470588235294
2025-10-20T13:54:11.755271,26.53435114503817,-3.16793893129771,-0.9465648854961832,0.34237083740234375,-0.6584054565429687,9.105148913574219,25.000588235294117
2025-10-20T13:54:11.772108,30.14503816793893,-2.648854961832061,-1.5267175572519085,0.316034619140625,-0.6464344482421874,8.772354882812499,24.906470588235294
2025-10-20T13:54:11.788945,34.603053435114504,-1.9312977099236641,-2.3206106870229006,0.49320554199218747,-0.5770026000976562,8.908824377441405,24.906470588235294
2025-10-20T13:54:11.805795,38.770992366412216,-1.2290076335877862,-3.1297709923664123,0.47644613037109373,-0.5482721801757812,8.875305554199219,25.09470588235294
2025-10-20T13:54:11.822666,41.412213740458014,-0.5648854961832062,-3.7938931297709924,0.5123591552734374,-0.38307226562499996,8.985438830566405,25.000588235294117
2025-10-20T13:54:11.839510,43.25190839694657,-0.06870229007633588,-4.580152671755725,0.4740519287109375,-0.23223756103515625,8.810662109374999,24.906470588235294
2025-10-20T13:54:11.856356,45.16030534351145,0.22900763358778625,-5.2748091603053435,0.5626373901367188,-0.06703764648437499,8.82981572265625,24.906470588235294
2025-10-20T13:54:11.873206,46.3587786259542,0.7557251908396947,-6.137404580152672,0.5051765502929687,-0.028730419921875,8.894459167480468,24.906470588235294
2025-10-20T13:54:11.890055,45.80916030534351,1.5877862595419847,-6.847328244274809,0.49320554199218747,0.09816226806640624,9.066841687011719,24.906470588235294
2025-10-20T13:54:11.906901,44.17557251908397,2.50381679389313,-7.480916030534351,0.39264907226562495,0.29448680419921874,8.935160595703124,25.000588235294117
2025-10-20T13:54:11.923751,42.61832061068702,3.1908396946564888,-7.9541984732824424,0.5219359619140624,0.33039982910156246,8.8872765625,25.000588235294117
2025-10-20T13:54:11.940595,39.89312977099237,3.7557251908396947,-8.251908396946565,0.46208092041015625,0.4525041137695312,9.030928662109375,24.906470588235294
2025-10-20T13:54:11.957443,35.37404580152672,4.145038167938932,-8.541984732824428,0.5674257934570313,0.5219359619140624,9.062053283691405,24.906470588235294
2025-10-20T13:54:11.974293,30.778625954198475,4.641221374045801,-8.725190839694656,0.6057330200195312,0.63206923828125,8.954314208984375,24.906470588235294
2025-10-20T13:54:11.991142,25.053435114503817,4.824427480916031,-8.687022900763358,0.5267243652343749,1.0366893188476562,9.124302526855468,24.906470588235294
2025-10-20T13:54:12.007985,17.755725190839694,5.564885496183206,-8.305343511450381,0.45489831542968745,0.967257470703125,8.913612780761719,24.906470588235294
2025-10-20T13:54:12.024878,11.274809160305344,5.534351145038168,-8.114503816793894,0.5626373901367188,1.0941501586914062,9.124302526855468,24.953529411764706
2025-10-20T13:54:12.041739,7.694656488549619,5.00763358778626,-7.755725190839694,0.507570751953125,1.2138602416992186,9.270348828125,24.953529411764706
2025-10-20T13:54:12.058587,-1.6259541984732824,5.068702290076335,-7.061068702290076,0.48123453369140623,1.22583125,9.361328491210937,24.953529411764706
2025-10-20T13:54:12.075431,-10.122137404580153,4.564885496183206,-6.374045801526718,0.45968671875,1.24498486328125,9.085995300292968,24.953529411764706
2025-10-20T13:54:12.092280,-16.85496183206107,4.206106870229007,-5.526717557251908,0.5602431884765625,1.3168109130859373,9.162609753417968,24.953529411764706
2025-10-20T13:54:12.109120,-22.0381679389313,2.9236641221374047,-4.709923664122138,0.5003881469726562,1.369483349609375,9.227253198242186,24.953529411764706
2025-10-20T13:54:12.125976,-27.16793893129771,2.8091603053435112,-3.572519083969466,0.5410895751953124,1.1755530151367186,9.366116894531249,24.953529411764706
2025-10-20T13:54:12.142822,-33.02290076335878,2.015267175572519,-2.6717557251908395,0.5386953735351562,1.209071838378906,9.6151138671875,25.04764705882353
2025-10-20T13:54:12.159670,-37.18320610687023,1.4809160305343512,-1.5954198473282444,0.6703764648437499,0.9217676391601562,9.414000927734374,24.953529411764706
2025-10-20T13:54:12.176514,-40.89312977099237,3.6030534351145036,-1.2213740458015268,0.6272808349609375,0.8978256225585937,9.734823950195311,24.953529411764706
2025-10-20T13:54:12.193358,-43.603053435114504,1.5572519083969465,-0.37404580152671757,0.44053310546874996,0.7852981445312499,9.662997900390625,25.04764705882353
2025-10-20T13:54:12.210262,-45.98473282442748,1.251908396946565,0.24427480916030533,0.48123453369140623,0.5482721801757812,9.471461767578125,24.953529411764706
2025-10-20T13:54:12.227151,-47.091603053435115,0.7862595419847328,0.816793893129771,0.5267243652343749,0.34715924072265625,9.442731347656249,25.000588235294117
2025-10-20T13:54:12.244011,-47.038167938931295,0.29770992366412213,1.015267175572519,0.4908113403320312,0.2561795776367187,9.557653027343749,25.000588235294117
2025-10-20T13:54:12.260862,-45.717557251908396,-1.916030534351145,1.2442748091603053,0.5315127685546874,-0.2059013427734375,9.943119494628906,24.906470588235294
2025-10-20T13:54:12.277704,-45.3206106870229,-0.3511450381679389,1.4198473282442747,0.5506663818359374,-0.18435352783203124,9.789890588378906,24.906470588235294
2025-10-20T13:54:12.294561,-43.19847328244275,-0.12213740458015267,1.4732824427480915,0.49799394531249996,-0.19632453613281248,9.605537060546874,24.906470588235294
2025-10-20T13:54:12.311379,-40.847328244274806,-0.7099236641221374,1.450381679389313,0.47644613037109373,-0.5434837768554687,9.648632690429688,24.906470588235294
2025-10-20T13:54:12.328232,-36.847328244274806,0.24427480916030533,1.4274809160305344,0.373495458984375,-0.7805097412109374,9.658209497070311,25.000588235294117
2025-10-20T13:54:12.345079,-33.25954198473283,-0.8854961832061069,1.1755725190839694,0.40940848388671874,-1.0007762939453124,9.591171850585937,24.906470588235294
2025-10-20T13:54:12.361930,-30.366412213740457,-1.6259541984732824,1.0458015267175573,0.48123453369140623,-0.9528922607421875,9.832986218261718,24.906470588235294
2025-10-20T13:54:12.378777,-25.770992366412212,-3.9083969465648853,0.6564885496183206,0.5506663818359374,-0.8978256225585937,9.85692823486328,24.906470588235294
2025-10-20T13:54:12.395627,-21.282442748091604,-1.4580152671755726,0.32061068702290074,0.47165772705078124,-1.1563994018554686,9.744400756835937,24.906470588235294
2025-10-20T13:54:12.412472,-16.236641221374047,-0.015267175572519083,-0.1984732824427481,0.42377369384765623,-1.1061211669921875,9.5001921875,24.906470588235294
2025-10-20T13:54:12.429321,-12.106870229007633,-2.267175572519084,-0.4351145038167939,0.4333505004882812,-1.0438719238281249,9.533711010742186,24.906470588235294
2025-10-20T13:54:12.446170,-8.755725190839694,-2.2442748091603053,-0.8549618320610687,0.42377369384765623,-0.9265560424804687,9.840168823242188,25.000588235294117
2025-10-20T13:54:12.463021,-3.984732824427481,-2.099236641221374,-1.6488549618320612,0.35673604736328124,-0.8188169677734375,9.708487731933593,25.000588235294117
2025-10-20T13:54:12.479864,0.549618320610687,-2.8091603053435112,-2.2061068702290076,0.4070142822265625,-0.8906430175781249,9.631873278808593,25.000588235294117
2025-10-20T13:54:12.496717,3.6564885496183206,-2.549618320610687,-2.6564885496183206,0.3232172241210937,-0.6488286499023437,9.679757312011718,25.000588235294117
2025-10-20T13:54:12.513574,6.4961832061068705,-3.053435114503817,-3.145038167938931,0.5003881469726562,-0.41419688720703124,9.710881933593749,25.000588235294117
2025-10-20T13:54:12.530428,9.145038167938932,-3.145038167938931,-3.5801526717557253,0.3711012573242187,-0.34237083740234375,9.758765966796874,25.000588235294117
2025-10-20T13:54:12.547293,10.740458015267176,-3.6259541984732824,-3.946564885496183,0.4381389038085937,-0.24660277099609373,9.306261853027344,24.906470588235294
2025-10-20T13:54:12.564138,12.610687022900763,-3.450381679389313,-4.244274809160306,0.45968671875,0.055066638183593745,9.751583361816406,25.000588235294117
2025-10-20T13:54:12.580984,13.19083969465649,-3.49618320610687,-4.450381679389313,0.5147533569335937,0.1292868896484375,9.749189160156249,24.906470588235294
2025-10-20T13:54:12.597828,12.702290076335878,-3.114503816793893,-4.106870229007634,0.5482721801757812,0.28012159423828126,9.507374792480467,24.906470588235294
2025-10-20T13:54:12.614675,13.610687022900763,-3.114503816793893,-3.122137404580153,0.5530605834960938,0.40940848388671874,9.548076220703125,24.906470588235294
2025-10-20T13:54:12.631529,10.65648854961832,-2.8473282442748094,-2.763358778625954,0.5027823486328125,0.4572925170898437,9.555258825683593,24.953529411764706
2025-10-20T13:54:12.648377,9.557251908396946,-3.236641221374046,-1.9389312977099236,0.5099649536132812,0.3184288208007812,9.411606726074218,25.04764705882353
2025-10-20T13:54:12.665258,7.977099236641221,-3.2519083969465647,-0.9236641221374046,0.5698199951171875,0.20350714111328125,9.279925634765624,24.859411764705882
2025-10-20T13:54:12.682131,6.687022900763359,-3.213740458015267,-0.3816793893129771,0.5746083984375,0.047884033203124995,9.325415466308593,25.04764705882353
2025-10-20T13:54:12.698980,5.816793893129771,-3.404580152671756,0.26717557251908397,0.5817910034179687,0.39743747558593745,9.05965908203125,24.953529411764706
2025-10-20T13:54:12.715828,5.083969465648855,-2.900763358778626,0.6259541984732825,0.5243301635742187,0.086191259765625,9.114725720214842,24.953529411764706
2025-10-20T13:54:12.732682,4.374045801526718,-2.3969465648854964,1.0534351145038168,0.5698199951171875,0.11252747802734374,9.095572106933593,24.953529411764706
2025-10-20T13:54:12.749526,3.5801526717557253,-1.7633587786259541,1.1603053435114503,0.4908113403320312,0.0383072265625,8.927977990722656,24.953529411764706
2025-10-20T13:54:12.766367,4.068702290076335,-1.450381679389313,1.3129770992366412,0.603338818359375,-0.09816226806640624,8.913612780761719,24.953529411764706
2025-10-20T13:54:12.783215,4.877862595419847,-1.534351145038168,1.213740458015267,0.5147533569335937,-0.1292868896484375,8.935160595703124,24.953529411764706
2025-10-20T13:54:12.800056,5.6106870229007635,-1.2061068702290076,1.1374045801526718,0.5674257934570313,-0.11731588134765625,9.028534460449219,24.953529411764706
2025-10-20T13:54:12.816902,6.748091603053435,-0.8320610687022901,1.0229007633587786,0.6584054565429687,-0.17238251953125,8.947131604003905,24.953529411764706
2025-10-20T13:54:12.833750,8.229007633587786,-0.2900763358778626,0.8854961832061069,0.6272808349609375,-0.16280571289062498,8.767566479492187,25.04764705882353
2025-10-20T13:54:12.850600,10.091603053435115,0.8854961832061069,0.7022900763358778,0.6200982299804687,-0.35673604736328124,8.580818749999999,24.953529411764706
2025-10-20T13:54:12.867485,11.885496183206106,1.6946564885496183,0.6412213740458015,0.6009446166992187,-0.3136404174804687,8.724470849609375,24.906470588235294
2025-10-20T13:54:12.884342,13.534351145038167,2.595419847328244,0.29770992366412213,0.5003881469726562,-0.19393033447265623,8.602366564941406,25.000588235294117
