timestamp,gyro_x,gyro_y,gyro_z,acc_x,acc_y,acc_z,temp
2025-10-20T13:57:07.747977,-1.6488549618320612,-0.20610687022900764,-0.9923664122137404,0.5434837768554687,-0.023942016601562498,9.234435803222656,25.894705882352945
2025-10-20T13:57:07.765153,-1.3587786259541985,0.08396946564885496,-1.1526717557251909,0.5889736083984375,-0.031124621582031248,9.241618408203124,25.941764705882356
2025-10-20T13:57:07.782070,-1.0534351145038168,-0.06870229007633588,-1.0381679389312977,0.5530605834960938,-0.05746083984375,9.282319836425781,25.941764705882356
2025-10-20T13:57:07.798992,-0.6106870229007634,-0.06870229007633588,-1.16793893129771,0.5243301635742187,-0.02633621826171875,9.291896643066405,25.941764705882356
2025-10-20T13:57:07.815897,-0.2900763358778626,-1.9541984732824427,-1.2900763358778626,0.5315127685546874,0.00718260498046875,9.248801013183593,25.894705882352945
2025-10-20T13:57:07.832728,-0.24427480916030533,0.007633587786259542,-1.2442748091603053,0.49320554199218747,0.062249243164062495,9.272743029785156,25.894705882352945
2025-10-20T13:57:07.849572,0.04580152671755725,0.04580152671755725,-1.1755725190839694,0.5051765502929687,-0.15322890625,9.198522778320312,25.894705882352945
2025-10-20T13:57:07.866417,0.25190839694656486,0.2366412213740458,-1.3358778625954197,0.5770026000976562,-0.13168109130859373,9.3086560546875,25.894705882352945
2025-10-20T13:57:07.883232,0.33587786259541985,0.22900763358778625,-1.099236641221374,0.5051765502929687,0.06943184814453125,9.457096557617186,25.894705882352945
2025-10-20T13:57:07.900051,0.3969465648854962,0.4198473282442748,-1.213740458015267,0.5530605834960938,-0.15322890625,9.342174877929686,25.80058823529412
2025-10-20T13:57:07.916913,0.5343511450381679,0.3893129770992366,-1.3129770992366412,0.5722141967773438,0.00718260498046875,9.406818322753905,25.894705882352945
2025-10-20T13:57:07.933767,0.5954198473282443,0.3893129770992366,-1.251908396946565,0.5267243652343749,0.13168109130859373,9.311050256347656,25.894705882352945
2025-10-20T13:57:07.950617,0.5877862595419847,0.366412213740458,-1.2671755725190839,0.507570751953125,0.03591302490234375,9.313444458007812,25.941764705882356
2025-10-20T13:57:07.967459,0.5038167938931297,0.46564885496183206,-1.183206106870229,0.59376201171875,0.00239420166015625,9.210493786621093,25.753529411764706
2025-10-20T13:57:07.984329,0.6335877862595419,0.3511450381679389,-1.183206106870229,0.5698199951171875,0.0718260498046875,9.265560424804686,25.941764705882356
2025-10-20T13:57:08.001206,0.6564885496183206,0.022900763358778626,-1.0687022900763359,0.5698199951171875,0.05746083984375,9.287108239746093,25.941764705882356
2025-10-20T13:57:08.018080,0.5648854961832062,0.24427480916030533,-1.251908396946565,0.5458779785156249,0.06464344482421874,9.363722692871093,25.894705882352945
2025-10-20T13:57:08.034934,0.5343511450381679,0.3435114503816794,-1.2671755725190839,0.5147533569335937,0.086191259765625,9.363722692871093,25.80058823529412
2025-10-20T13:57:08.051794,0.45038167938931295,0.061068702290076333,-1.0610687022900764,0.49320554199218747,0.07900865478515624,9.313444458007812,25.80058823529412
2025-10-20T13:57:08.068655,0.2900763358778626,0.022900763358778626,-1.1221374045801527,0.5482721801757812,0.07422025146484375,9.327809667968749,25.894705882352945
2025-10-20T13:57:08.085502,0.25190839694656486,0.030534351145038167,-1.1374045801526718,0.5530605834960938,0.028730419921875,9.428366137695312,25.894705882352945
2025-10-20T13:57:08.102383,0.35877862595419846,1.916030534351145,-0.9465648854961832,0.5315127685546874,0.0718260498046875,9.289502441406249,25.847647058823533
2025-10-20T13:57:08.119284,0.1984732824427481,0.09923664122137404,-1.0916030534351144,0.469263525390625,0.0383072265625,9.351751684570312,25.941764705882356
2025-10-20T13:57:08.136133,0.07633587786259542,0.1297709923664122,-0.9007633587786259,0.5195417602539062,0.0430956298828125,9.442731347656249,25.847647058823533
2025-10-20T13:57:08.152971,-0.12213740458015267,-0.1984732824427481,-1.0,0.507570751953125,0.033518823242187495,9.30147344970703,25.847647058823533
2025-10-20T13:57:08.169778,-0.2748091603053435,-0.04580152671755725,-0.9465648854961832,0.5722141967773438,0.033518823242187495,9.320627062988281,25.941764705882356
2025-10-20T13:57:08.186668,-0.3816793893129771,-0.13740458015267176,-0.9618320610687023,0.5291185668945312,0.10295067138671875,9.370905297851563,25.941764705882356
2025-10-20T13:57:08.204291,-0.6870229007633588,-0.03816793893129771,-1.0458015267175573,0.5985504150390625,0.05746083984375,9.41639512939453,25.894705882352945
2025-10-20T13:57:08.221154,-1.0916030534351144,-0.03816793893129771,-0.9847328244274809,0.5506663818359374,0.07900865478515624,9.447519750976562,25.894705882352945
2025-10-20T13:57:08.242090,-1.366412213740458,-0.1450381679389313,-0.7633587786259542,0.55545478515625,0.06943184814453125,9.330203869628905,25.941764705882356
2025-10-20T13:57:08.265066,-1.7633587786259541,-0.12213740458015267,-0.7175572519083969,0.5458779785156249,0.105344873046875,9.279925634765624,25.847647058823533
2025-10-20T13:57:08.283182,-2.1526717557251906,-0.15267175572519084,-0.916030534351145,0.55545478515625,0.055066638183593745,9.320627062988281,25.941764705882356
2025-10-20T13:57:08.302406,-2.7786259541984735,-1.9312977099236641,-0.7251908396946565,0.47884033203125,0.105344873046875,9.198522778320312,25.894705882352945
2025-10-20T13:57:08.324752,-3.0610687022900764,-0.12213740458015267,-0.6870229007633588,0.5291185668945312,0.02154781494140625,9.332598071289063,25.847647058823533
2025-10-20T13:57:08.343752,-3.5877862595419847,-1.9465648854961832,-0.7022900763358778,0.5506663818359374,0.16759411621093748,9.193734375,25.894705882352945
2025-10-20T13:57:08.362108,-4.068702290076335,-0.24427480916030533,-0.5725190839694656,0.7661445312499999,0.06703764648437499,9.260772021484375,25.941764705882356
2025-10-20T13:57:08.384129,-4.488549618320611,0.0916030534351145,-0.7938931297709924,0.44532150878906246,0.0526724365234375,9.284714038085937,25.894705882352945
2025-10-20T13:57:08.404071,-4.541984732824427,-0.061068702290076333,-0.5725190839694656,0.5674257934570313,-0.01915361328125,9.270348828125,25.941764705882356
2025-10-20T13:57:08.421655,-4.8396946564885495,0.25190839694656486,-0.7938931297709924,0.63206923828125,-0.086191259765625,9.208099584960937,25.847647058823533
2025-10-20T13:57:08.443517,-5.0534351145038165,0.2366412213740458,-0.6870229007633588,0.36391865234375,-0.1149216796875,9.22485899658203,25.894705882352945
2025-10-20T13:57:08.464282,-4.854961832061068,0.08396946564885496,-0.7404580152671756,0.5530605834960938,-0.1388636962890625,9.334992272949219,25.235882352941175
2025-10-20T13:57:08.481180,-4.458015267175573,-1.916030534351145,-0.7022900763358778,0.5506663818359374,0.23223756103515625,9.327809667968749,25.941764705882356
2025-10-20T13:57:08.503156,-4.2748091603053435,0.19083969465648856,-0.7862595419847328,0.5674257934570313,0.0430956298828125,9.373299499511718,25.894705882352945
2025-10-20T13:57:08.525370,-3.8473282442748094,0.2900763358778626,-0.8702290076335878,0.51714755859375,0.031124621582031248,9.373299499511718,25.941764705882356
2025-10-20T13:57:08.542218,-3.427480916030534,0.31297709923664124,-0.9923664122137404,0.6967126831054687,0.07900865478515624,9.253589416503905,25.894705882352945
2025-10-20T13:57:08.564376,-2.8244274809160306,0.40458015267175573,-0.9847328244274809,0.3184288208007812,-0.033518823242187495,9.279925634765624,25.894705882352945
2025-10-20T13:57:08.587645,-2.427480916030534,0.5343511450381679,-1.1450381679389312,0.7541735229492187,0.04548983154296875,9.332598071289063,25.80058823529412
2025-10-20T13:57:08.604501,-2.068702290076336,0.2595419847328244,-1.1145038167938932,0.5817910034179687,-0.028730419921875,9.473855969238281,25.941764705882356
2025-10-20T13:57:08.625607,-1.5954198473282444,0.3511450381679389,-1.0534351145038168,0.7158662963867187,0.0,9.368511096191405,25.847647058823533
2025-10-20T13:57:08.648450,-1.297709923664122,0.5038167938931297,-0.9847328244274809,0.6296750366210937,0.09816226806640624,9.239224206542968,25.941764705882356
2025-10-20T13:57:08.665762,-1.099236641221374,0.7175572519083969,-0.9770992366412213,0.5602431884765625,0.10295067138671875,9.414000927734374,25.941764705882356
2025-10-20T13:57:08.685920,-1.083969465648855,0.6793893129770993,-1.0534351145038168,0.5674257934570313,0.143652099609375,9.366116894531249,25.894705882352945
2025-10-20T13:57:08.708727,-0.9541984732824428,0.9389312977099237,-0.8702290076335878,0.6751648681640625,0.02154781494140625,9.244012609863281,25.847647058823533
2025-10-20T13:57:08.728413,-1.0,0.8702290076335878,-1.0076335877862594,0.5626373901367188,0.076614453125,9.354145886230468,25.894705882352945
2025-10-20T13:57:08.747341,-1.16793893129771,1.0687022900763359,-0.9389312977099237,0.5243301635742187,0.08379705810546874,9.368511096191405,25.847647058823533
2025-10-20T13:57:08.769556,-0.9083969465648855,0.8931297709923665,-0.9465648854961832,0.5147533569335937,0.03591302490234375,9.370905297851563,26.553529411764707
2025-10-20T13:57:08.788981,-0.7862595419847328,1.16793893129771,-0.816793893129771,0.565031591796875,0.011971008300781249,9.212887988281249,25.28294117647059
2025-10-20T13:57:08.806845,-0.5419847328244275,0.8244274809160306,-0.9236641221374046,0.4955997436523437,-0.05746083984375,9.430760339355468,25.847647058823533
2025-10-20T13:57:08.828808,-0.4198473282442748,0.4122137404580153,-1.0381679389312977,0.5027823486328125,0.055066638183593745,9.34696328125,25.847647058823533
2025-10-20T13:57:08.849082,-0.15267175572519084,0.3969465648854962,-0.7938931297709924,0.5578489868164063,0.062249243164062495,9.327809667968749,25.235882352941175
2025-10-20T13:57:08.866150,-0.21374045801526717,0.3435114503816794,-0.9312977099236641,0.5219359619140624,0.009576806640625,9.342174877929686,25.894705882352945
2025-10-20T13:57:08.888073,-0.22900763358778625,0.44274809160305345,-1.015267175572519,0.5291185668945312,0.02633621826171875,9.272743029785156,25.847647058823533
2025-10-20T13:57:08.909642,-0.04580152671755725,0.1450381679389313,-0.8625954198473282,0.5674257934570313,0.00718260498046875,9.275137231445312,25.894705882352945
2025-10-20T13:57:08.926517,-0.19083969465648856,0.09923664122137404,-1.1068702290076335,0.4908113403320312,0.06703764648437499,9.296685046386719,25.80058823529412
2025-10-20T13:57:08.948648,-0.16793893129770993,-0.31297709923664124,-1.0,0.5147533569335937,0.1484405029296875,9.217676391601563,25.847647058823533
2025-10-20T13:57:08.971525,-0.32061068702290074,-0.5114503816793893,-0.9618320610687023,0.5530605834960938,0.06943184814453125,9.258377819824219,25.894705882352945
2025-10-20T13:57:08.988420,-0.5572519083969466,-0.6870229007633588,-0.9389312977099237,0.6057330200195312,0.11013327636718749,9.303867651367186,25.80058823529412
2025-10-20T13:57:09.010048,-0.5572519083969466,-0.7099236641221374,-0.9618320610687023,0.46686932373046874,0.07422025146484375,9.215282189941405,25.847647058823533
2025-10-20T13:57:09.033000,-0.916030534351145,-0.9389312977099237,-0.7938931297709924,0.5315127685546874,0.1484405029296875,9.272743029785156,25.235882352941175
2025-10-20T13:57:09.049851,-1.282442748091603,-1.083969465648855,-0.7404580152671756,0.5243301635742187,0.0718260498046875,9.222464794921875,25.235882352941175
2025-10-20T13:57:09.070577,-1.5572519083969465,-1.0076335877862594,-0.7022900763358778,0.316034619140625,0.1197100830078125,9.239224206542968,25.235882352941175
2025-10-20T13:57:09.093409,-1.7328244274809161,-1.3129770992366412,-0.8473282442748091,0.47644613037109373,0.086191259765625,9.045293872070312,25.235882352941175
2025-10-20T13:57:09.111139,-2.1297709923664123,-1.251908396946565,-0.816793893129771,0.5291185668945312,0.009576806640625,9.332598071289063,25.28294117647059
2025-10-20T13:57:09.130804,-2.4198473282442747,-1.1526717557251909,-0.9083969465648855,0.5530605834960938,0.11252747802734374,9.265560424804686,25.80058823529412
2025-10-20T13:57:09.153339,-2.4732824427480917,-1.1908396946564885,-0.9694656488549618,0.6751648681640625,-0.07900865478515624,9.411606726074218,25.894705882352945
2025-10-20T13:57:09.172323,-2.801526717557252,-0.8702290076335878,-0.7404580152671756,0.5410895751953124,0.0047884033203125,9.260772021484375,25.847647058823533
2025-10-20T13:57:09.190670,-3.183206106870229,-1.0076335877862594,-0.8320610687022901,0.5363011718749999,0.040701428222656245,9.318232861328125,25.894705882352945
2025-10-20T13:57:09.212833,-3.122137404580153,-0.6030534351145038,-0.9236641221374046,0.63206923828125,0.05027823486328125,9.342174877929686,25.847647058823533
2025-10-20T13:57:09.233064,-3.0381679389312977,-0.16030534351145037,-0.6030534351145038,0.6057330200195312,0.08140285644531249,9.193734375,25.235882352941175
2025-10-20T13:57:09.250077,-3.0,-0.22137404580152673,-0.8396946564885496,0.6248866333007812,-0.143652099609375,9.315838659667968,26.64764705882353
2025-10-20T13:57:09.271829,-2.900763358778626,-0.29770992366412213,-0.816793893129771,0.59376201171875,0.28012159423828126,9.440337145996093,25.941764705882356
2025-10-20T13:57:09.293313,-2.564885496183206,-0.10687022900763359,-0.9236641221374046,0.46686932373046874,0.05746083984375,9.327809667968749,25.847647058823533
2025-10-20T13:57:09.310154,-2.3893129770992365,0.16030534351145037,-0.9923664122137404,0.5817910034179687,0.12449848632812499,9.473855969238281,25.941764705882356
2025-10-20T13:57:09.332135,-2.1526717557251906,0.3282442748091603,-0.9465648854961832,0.4740519287109375,-0.14125789794921875,9.409212524414063,25.847647058823533
2025-10-20T13:57:09.354616,-1.8702290076335877,0.48091603053435117,-0.9923664122137404,0.5506663818359374,0.028730419921875,9.45470235595703,25.894705882352945
2025-10-20T13:57:09.371462,-1.8244274809160306,0.9007633587786259,-0.7633587786259542,0.4213794921875,-0.11252747802734374,9.433154541015625,25.894705882352945
2025-10-20T13:57:09.393663,-1.8625954198473282,0.6259541984732825,-0.8320610687022901,0.6823474731445313,-0.011971008300781249,9.236830004882812,25.894705882352945
2025-10-20T13:57:09.416888,-1.6259541984732824,1.1374045801526718,-1.0305343511450382,0.7254431030273437,-0.06464344482421874,9.495403784179686,25.941764705882356
2025-10-20T13:57:09.433720,-1.1984732824427482,1.1526717557251909,-1.1145038167938932,0.4836287353515625,0.2059013427734375,9.466673364257812,25.847647058823533
2025-10-20T13:57:09.454796,-1.1603053435114503,1.2671755725190839,-1.1297709923664123,0.5961562133789062,0.11252747802734374,9.5384994140625,25.80058823529412
2025-10-20T13:57:09.477709,-1.4351145038167938,1.4427480916030535,-1.1755725190839694,0.35194764404296874,0.00718260498046875,9.253589416503905,25.941764705882356
2025-10-20T13:57:09.494964,-1.2442748091603053,1.6488549618320612,-0.916030534351145,0.6943184814453125,-0.143652099609375,9.37808790283203,25.894705882352945
2025-10-20T13:57:09.515102,-1.3206106870229009,1.4274809160305344,-1.0458015267175573,0.6200982299804687,0.181959326171875,9.361328491210937,25.941764705882356
2025-10-20T13:57:09.537667,-1.7709923664122138,1.5954198473282444,-0.8778625954198473,0.5386953735351562,0.040701428222656245,9.41639512939453,25.941764705882356
2025-10-20T13:57:09.555774,-1.9465648854961832,1.4580152671755726,-0.8549618320610687,0.4908113403320312,0.05027823486328125,9.217676391601563,25.847647058823533
2025-10-20T13:57:09.575119,-1.6870229007633588,1.3435114503816794,-0.8244274809160306,0.5506663818359374,0.09816226806640624,9.394847314453125,25.80058823529412
2025-10-20T13:57:09.597527,-1.8091603053435115,1.3206106870229009,-0.9694656488549618,0.47644613037109373,0.11252747802734374,9.37808790283203,25.941764705882356
2025-10-20T13:57:09.616483,-1.8244274809160306,1.1984732824427482,-0.9312977099236641,0.5530605834960938,0.02633621826171875,9.289502441406249,25.894705882352945
2025-10-20T13:57:09.634718,-1.816793893129771,1.2213740458015268,-0.7862595419847328,0.40940848388671874,-0.009576806640625,9.272743029785156,25.847647058823533
2025-10-20T13:57:09.656749,-1.7786259541984732,0.7633587786259542,-0.6870229007633588,0.5003881469726562,0.0,9.296685046386719,25.941764705882356
2025-10-20T13:57:09.676631,-0.05343511450381679,0.8320610687022901,-0.7938931297709924,0.5722141967773438,0.12210428466796874,9.255983618164063,25.894705882352945
2025-10-20T13:57:09.694051,-2.030534351145038,0.816793893129771,-0.8091603053435115,0.45968671875,0.03591302490234375,9.129090930175781,25.941764705882356
2025-10-20T13:57:09.716099,-1.6793893129770991,0.7251908396946565,-0.8091603053435115,0.3591302490234375,0.44532150878906246,9.449913952636718,25.941764705882356
2025-10-20T13:57:09.738150,-1.5190839694656488,0.45038167938931295,-0.8625954198473282,0.22026655273437498,-0.22505495605468748,9.150638745117186,25.847647058823533
2025-10-20T13:57:09.755153,-1.381679389312977,0.030534351145038167,-1.083969465648855,0.6392518432617187,0.0430956298828125,9.296685046386719,25.894705882352945
2025-10-20T13:57:09.777099,-1.549618320610687,-0.08396946564885496,-1.0229007633587786,0.3711012573242187,0.05027823486328125,9.437942944335937,25.847647058823533
2025-10-20T13:57:09.799981,-1.8015267175572518,1.8091603053435115,-0.9236641221374046,0.39743747558593745,0.2825157958984375,9.33978067626953,25.894705882352945
2025-10-20T13:57:09.816799,-1.5419847328244274,0.015267175572519083,-1.0229007633587786,0.6200982299804687,-0.0718260498046875,9.22485899658203,25.894705882352945
2025-10-20T13:57:09.838243,-0.015267175572519083,-0.17557251908396945,-1.0,0.5817910034179687,0.26815058593749996,9.251195214843749,25.847647058823533
2025-10-20T13:57:09.861164,-1.916030534351145,-0.33587786259541985,-1.0229007633587786,0.507570751953125,-0.04548983154296875,9.291896643066405,25.847647058823533
2025-10-20T13:57:09.877982,-1.6641221374045803,-0.07633587786259542,-1.2290076335877862,0.507570751953125,0.201112939453125,9.162609753417968,25.894705882352945
2025-10-20T13:57:09.898471,-1.5877862595419847,-0.3816793893129771,-1.1068702290076335,0.5889736083984375,-0.09337386474609374,9.313444458007812,25.894705882352945
2025-10-20T13:57:09.921176,-1.4198473282442747,-0.8091603053435115,-1.2366412213740459,0.6943184814453125,0.031124621582031248,9.279925634765624,25.235882352941175
2025-10-20T13:57:09.938891,-1.3129770992366412,-0.8396946564885496,-1.2595419847328244,0.5339069702148437,0.143652099609375,9.229647399902344,26.69470588235294
2025-10-20T13:57:09.958476,-1.1297709923664123,-0.7633587786259542,-1.251908396946565,0.63206923828125,0.11731588134765625,9.411606726074218,25.941764705882356
2025-10-20T13:57:09.980874,-1.0076335877862594,-0.5038167938931297,-1.2442748091603053,0.5386953735351562,0.06703764648437499,9.229647399902344,25.894705882352945
2025-10-20T13:57:09.999440,-0.9694656488549618,-0.33587786259541985,-1.2290076335877862,0.42377369384765623,0.00239420166015625,9.313444458007812,25.894705882352945
2025-10-20T13:57:10.018421,-0.9083969465648855,-0.44274809160305345,-1.3053435114503817,0.5602431884765625,0.062249243164062495,9.246406811523437,25.847647058823533
2025-10-20T13:57:10.040959,-0.7251908396946565,-0.3969465648854962,-1.1221374045801527,0.6272808349609375,-0.031124621582031248,9.294290844726563,25.847647058823533
2025-10-20T13:57:10.060461,-0.9007633587786259,-0.2595419847328244,-1.1374045801526718,0.5363011718749999,0.10295067138671875,9.418789331054686,25.847647058823533
2025-10-20T13:57:10.078451,-0.9618320610687023,-0.16030534351145037,-1.1908396946564885,0.5482721801757812,0.0383072265625,9.344569079589844,25.988823529411768
2025-10-20T13:57:10.100613,-1.099236641221374,0.030534351145038167,-1.0381679389312977,0.507570751953125,0.05746083984375,9.497797985839844,25.941764705882356
2025-10-20T13:57:10.121383,-1.0916030534351144,-0.10687022900763359,-1.1068702290076335,0.4285620971679687,0.12449848632812499,9.380482104492186,25.941764705882356
2025-10-20T13:57:10.138199,-1.465648854961832,0.1450381679389313,-1.0458015267175573,0.7230489013671875,0.009576806640625,9.445125549316407,25.941764705882356
2025-10-20T13:57:10.161403,-1.7557251908396947,0.11450381679389313,-0.9007633587786259,0.47165772705078124,0.17477672119140625,9.490615380859374,25.894705882352945
2025-10-20T13:57:10.183459,-1.8778625954198473,0.2748091603053435,-0.8549618320610687,0.5027823486328125,0.07900865478515624,9.337386474609374,25.941764705882356
2025-10-20T13:57:10.200296,-2.404580152671756,0.40458015267175573,-0.9465648854961832,0.6847416748046875,0.04548983154296875,9.428366137695312,25.941764705882356
2025-10-20T13:57:10.222274,-2.6259541984732824,1.0458015267175573,-0.6641221374045801,0.4381389038085937,0.031124621582031248,9.375693701171874,25.235882352941175
2025-10-20T13:57:10.245435,-2.687022900763359,1.0687022900763359,-0.7938931297709924,0.5051765502929687,0.12449848632812499,9.41639512939453,25.941764705882356
2025-10-20T13:57:10.262256,-2.66412213740458,1.0458015267175573,-0.7709923664122137,0.6464344482421874,-0.0143652099609375,9.428366137695312,25.941764705882356
2025-10-20T13:57:10.283427,-3.0916030534351147,0.6106870229007634,-0.7938931297709924,0.5123591552734374,0.0,9.399635717773437,25.894705882352945
2025-10-20T13:57:10.306223,-2.969465648854962,0.8396946564885496,-0.6335877862595419,0.5602431884765625,0.13168109130859373,9.471461767578125,25.894705882352945
2025-10-20T13:57:10.323035,-3.1297709923664123,1.083969465648855,-0.6793893129770993,0.4908113403320312,0.08858546142578125,9.344569079589844,25.894705882352945
2025-10-20T13:57:10.343510,-3.053435114503817,1.0458015267175573,-0.7099236641221374,0.30885201416015623,-0.0718260498046875,9.210493786621093,25.80058823529412
2025-10-20T13:57:10.366063,-2.8244274809160306,0.9923664122137404,-0.7404580152671756,0.40462008056640625,0.1484405029296875,9.464279162597656,26.64764705882353
2025-10-20T13:57:10.383721,-2.564885496183206,0.9312977099236641,-0.8320610687022901,0.5506663818359374,0.0909796630859375,9.270348828125,25.894705882352945
2025-10-20T13:57:10.403347,-1.984732824427481,0.7022900763358778,-0.916030534351145,0.6105214233398437,-0.09816226806640624,9.267954626464844,25.941764705882356
2025-10-20T13:57:10.425695,-1.8244274809160306,0.732824427480916,-0.9083969465648855,0.5386953735351562,0.033518823242187495,9.260772021484375,25.80058823529412
2025-10-20T13:57:10.444218,-2.0076335877862594,0.5419847328244275,-0.7404580152671756,0.4070142822265625,0.07422025146484375,9.222464794921875,25.847647058823533
2025-10-20T13:57:10.462937,-1.7633587786259541,0.6183206106870229,-0.6946564885496184,0.4908113403320312,0.028730419921875,9.26316622314453,25.894705882352945
2025-10-20T13:57:10.485004,-1.6412213740458015,0.4351145038167939,-0.8244274809160306,0.33758243408203126,0.01915361328125,9.196128576660156,25.941764705882356
2025-10-20T13:57:10.504403,-1.5114503816793894,0.3511450381679389,-0.916030534351145,0.44053310546874996,0.22026655273437498,9.203311181640624,25.847647058823533
2025-10-20T13:57:10.522272,-1.3969465648854962,0.3969465648854962,-0.7786259541984732,0.51714755859375,0.11731588134765625,9.196128576660156,26.64764705882353
2025-10-20T13:57:10.544427,-1.534351145038168,-1.900763358778626,-0.8702290076335878,0.5434837768554687,-0.031124621582031248,9.205705383300781,25.941764705882356
2025-10-20T13:57:10.565100,-1.6793893129770991,0.030534351145038167,-0.9618320610687023,0.5195417602539062,0.20829554443359374,9.409212524414063,25.894705882352945
2025-10-20T13:57:10.581920,-1.7328244274809161,-0.15267175572519084,-0.9541984732824428,0.4740519287109375,0.016759411621093748,9.198522778320312,25.894705882352945
2025-10-20T13:57:10.603861,-1.6870229007633588,-0.21374045801526717,-0.7938931297709924,0.33518823242187495,0.04548983154296875,9.313444458007812,25.753529411764706
2025-10-20T13:57:10.625824,-1.816793893129771,-0.26717557251908397,-0.8396946564885496,0.47644613037109373,-0.105344873046875,9.267954626464844,25.894705882352945
2025-10-20T13:57:10.642654,-1.8015267175572518,-0.3893129770992366,-0.8091603053435115,0.5817910034179687,0.06703764648437499,9.270348828125,25.894705882352945
2025-10-20T13:57:10.664637,-1.8931297709923665,-0.21374045801526717,-0.816793893129771,0.4644751220703125,0.086191259765625,9.047688073730468,25.941764705882356
2025-10-20T13:57:10.687828,-1.5877862595419847,-0.44274809160305345,-0.8778625954198473,0.5434837768554687,0.0143652099609375,9.291896643066405,25.847647058823533
2025-10-20T13:57:10.704700,-1.7557251908396947,-0.2748091603053435,-0.8091603053435115,0.584185205078125,0.06703764648437499,9.327809667968749,25.235882352941175
2025-10-20T13:57:10.725784,-1.786259541984733,-0.35877862595419846,-0.8778625954198473,0.5698199951171875,0.12689268798828124,9.323021264648437,26.64764705882353
2025-10-20T13:57:10.748567,-1.6641221374045803,-0.4732824427480916,-0.9770992366412213,0.5530605834960938,-0.055066638183593745,9.229647399902344,25.894705882352945
2025-10-20T13:57:10.765962,-1.450381679389313,-0.37404580152671757,-0.916030534351145,0.5003881469726562,-0.06464344482421874,9.212887988281249,25.894705882352945
2025-10-20T13:57:10.786212,-1.534351145038168,-0.20610687022900764,-0.9770992366412213,0.5961562133789062,0.07900865478515624,9.265560424804686,25.894705882352945
2025-10-20T13:57:10.808932,-1.4198473282442747,-0.21374045801526717,-0.7557251908396947,0.5003881469726562,0.08140285644531249,9.449913952636718,25.894705882352945
2025-10-20T13:57:10.827462,-1.183206106870229,-0.2824427480916031,-0.8091603053435115,0.49799394531249996,-0.11013327636718749,9.325415466308593,25.28294117647059
2025-10-20T13:57:10.846179,-0.8854961832061069,-0.33587786259541985,-0.7786259541984732,0.51714755859375,0.10773907470703124,9.205705383300781,25.235882352941175
2025-10-20T13:57:10.868539,-1.0916030534351144,-0.12213740458015267,-0.6183206106870229,0.5003881469726562,0.05985504150390625,9.239224206542968,25.941764705882356
2025-10-20T13:57:10.888359,-0.9007633587786259,-0.061068702290076333,-0.8015267175572519,0.6847416748046875,0.040701428222656245,9.265560424804686,26.60058823529412
2025-10-20T13:57:10.905773,-0.7633587786259542,-0.10687022900763359,-0.7938931297709924,0.5817910034179687,0.06464344482421874,9.471461767578125,26.64764705882353
2025-10-20T13:57:10.927775,-0.732824427480916,-0.22137404580152673,-0.7709923664122137,0.5985504150390625,-0.0143652099609375,9.327809667968749,25.894705882352945
2025-10-20T13:57:10.948872,-0.7480916030534351,0.17557251908396945,-0.6335877862595419,0.5339069702148437,0.07422025146484375,9.222464794921875,25.235882352941175
2025-10-20T13:57:10.965691,-0.8396946564885496,0.11450381679389313,-0.7938931297709924,0.5410895751953124,0.01915361328125,9.279925634765624,25.894705882352945
2025-10-20T13:57:10.987586,-0.7251908396946565,0.19083969465648856,-0.7557251908396947,0.59376201171875,-0.040701428222656245,9.311050256347656,25.941764705882356
2025-10-20T13:57:11.009564,-0.8015267175572519,0.20610687022900764,-0.6564885496183206,0.5410895751953124,0.07900865478515624,9.490615380859374,25.80058823529412
2025-10-20T13:57:11.026452,-0.8625954198473282,0.2824427480916031,-0.7099236641221374,0.51714755859375,0.00239420166015625,9.311050256347656,25.847647058823533
2025-10-20T13:57:11.048343,-1.0076335877862594,0.3893129770992366,-0.48854961832061067,0.6631938598632812,0.1197100830078125,9.45470235595703,25.894705882352945
2025-10-20T13:57:11.071526,-1.099236641221374,0.3816793893129771,-0.5572519083969466,0.5626373901367188,0.055066638183593745,9.457096557617186,25.941764705882356
2025-10-20T13:57:11.088364,-1.381679389312977,0.3893129770992366,-0.7404580152671756,0.6344634399414062,0.13646949462890623,9.330203869628905,25.941764705882356
2025-10-20T13:57:11.109467,-1.5267175572519085,0.42748091603053434,-0.4961832061068702,0.45968671875,0.033518823242187495,9.366116894531249,25.941764705882356
2025-10-20T13:57:11.132326,-1.8931297709923665,0.4580152671755725,-0.35877862595419846,0.565031591796875,-0.143652099609375,9.366116894531249,25.894705882352945
2025-10-20T13:57:11.149138,-2.0763358778625953,0.5190839694656488,-0.48091603053435117,0.5722141967773438,0.0383072265625,9.325415466308593,26.64764705882353
2025-10-20T13:57:11.169649,-2.2748091603053435,0.9007633587786259,-0.5267175572519084,0.5003881469726562,0.033518823242187495,9.33978067626953,25.847647058823533
2025-10-20T13:57:11.192513,-2.6564885496183206,0.6641221374045801,-0.3053435114503817,0.5410895751953124,-0.040701428222656245,9.291896643066405,25.80058823529412
2025-10-20T13:57:11.210604,-2.5267175572519083,0.6412213740458015,-0.31297709923664124,0.47884033203125,0.09337386474609374,9.303867651367186,25.894705882352945
2025-10-20T13:57:11.229828,-2.717557251908397,0.48091603053435117,-0.44274809160305345,0.5770026000976562,-0.105344873046875,9.191340173339842,25.894705882352945
2025-10-20T13:57:11.252388,-3.1068702290076335,0.8549618320610687,-0.37404580152671757,0.354341845703125,-0.00718260498046875,9.270348828125,25.894705882352945
2025-10-20T13:57:11.271804,-2.854961832061069,0.7786259541984732,-0.1984732824427481,0.5602431884765625,0.0430956298828125,9.284714038085937,25.941764705882356
2025-10-20T13:57:11.289725,-2.969465648854962,0.6183206106870229,-0.19083969465648856,0.47884033203125,0.09816226806640624,9.260772021484375,25.894705882352945
2025-10-20T13:57:11.311581,-2.5114503816793894,0.3816793893129771,-0.22137404580152673,0.5722141967773438,0.01915361328125,9.291896643066405,25.847647058823533
2025-10-20T13:57:11.331814,-2.5267175572519083,0.5343511450381679,-0.20610687022900764,0.4261678955078125,0.15083470458984374,9.45470235595703,25.80058823529412
2025-10-20T13:57:11.348804,-2.427480916030534,0.3969465648854962,-0.4122137404580153,0.47884033203125,0.11252747802734374,9.265560424804686,25.847647058823533
2025-10-20T13:57:11.370677,-2.3893129770992365,0.366412213740458,-0.4961832061068702,0.5770026000976562,-0.01915361328125,9.248801013183593,25.894705882352945
2025-10-20T13:57:11.392196,-2.1297709923664123,0.07633587786259542,-0.4198473282442748,0.47884033203125,0.02633621826171875,9.227253198242186,25.80058823529412
2025-10-20T13:57:11.409035,-2.3969465648854964,0.16030534351145037,-0.5038167938931297,0.42377369384765623,-0.02633621826171875,9.282319836425781,25.894705882352945
2025-10-20T13:57:11.431128,-2.068702290076336,-0.09923664122137404,-0.3816793893129771,0.4908113403320312,-0.1292868896484375,9.354145886230468,25.941764705882356
2025-10-20T13:57:11.453943,-1.8549618320610688,-0.2595419847328244,-0.45038167938931295,0.6009446166992187,-0.02633621826171875,9.303867651367186,25.941764705882356
2025-10-20T13:57:11.470801,-0.015267175572519083,0.19083969465648856,-0.6793893129770993,0.5865794067382812,-0.11013327636718749,9.34696328125,25.988823529411768
2025-10-20T13:57:11.492200,-1.6870229007633588,-0.0916030534351145,-0.5343511450381679,0.49799394531249996,0.11013327636718749,9.368511096191405,25.28294117647059
2025-10-20T13:57:11.515068,-1.9618320610687023,-0.3053435114503817,-0.6183206106870229,0.5434837768554687,0.06943184814453125,9.414000927734374,25.847647058823533
2025-10-20T13:57:11.531895,-1.8396946564885497,-0.40458015267175573,-0.5038167938931297,0.6368576416015624,0.05027823486328125,9.423577734375,26.03588235294118
2025-10-20T13:57:11.552379,-2.2442748091603053,-0.24427480916030533,-0.7175572519083969,0.6200982299804687,-0.040701428222656245,9.354145886230468,26.69470588235294
2025-10-20T13:57:11.575233,-0.07633587786259542,-1.9312977099236641,-0.6870229007633588,0.5219359619140624,0.011971008300781249,9.215282189941405,25.894705882352945
2025-10-20T13:57:11.593322,-1.8702290076335877,0.15267175572519084,-0.6564885496183206,0.507570751953125,0.023942016601562498,9.354145886230468,25.235882352941175
2025-10-20T13:57:11.612432,-1.702290076335878,0.2824427480916031,-0.7175572519083969,0.5793968017578125,-0.1388636962890625,9.270348828125,25.894705882352945
2025-10-20T13:57:11.634892,-1.3969465648854962,-0.21374045801526717,-0.6106870229007634,0.5817910034179687,0.06943184814453125,9.466673364257812,25.894705882352945
2025-10-20T13:57:11.654283,-1.2595419847328244,-0.3969465648854962,-0.5419847328244275,0.612915625,-0.12689268798828124,9.325415466308593,25.847647058823533
2025-10-20T13:57:11.672099,-1.282442748091603,-0.061068702290076333,-0.5877862595419847,0.6536170532226562,0.04548983154296875,9.282319836425781,25.847647058823533
2025-10-20T13:57:11.693909,-1.3435114503816794,0.1297709923664122,-0.7557251908396947,0.5243301635742187,0.07900865478515624,9.296685046386719,25.941764705882356
2025-10-20T13:57:11.714139,-1.251908396946565,-0.03816793893129771,-0.48091603053435117,0.51714755859375,-0.040701428222656245,9.299079248046874,25.894705882352945
2025-10-20T13:57:11.731031,-1.2900763358778626,0.3053435114503817,-0.7557251908396947,0.46686932373046874,0.1292868896484375,9.334992272949219,25.941764705882356
2025-10-20T13:57:11.752733,-1.1450381679389312,0.40458015267175573,-0.4961832061068702,0.59376201171875,0.0,9.212887988281249,25.894705882352945
2025-10-20T13:57:11.774199,-1.4809160305343512,0.3435114503816794,-0.6564885496183206,0.5865794067382812,0.04548983154296875,9.449913952636718,25.894705882352945
2025-10-20T13:57:11.791040,-1.4961832061068703,0.4351145038167939,-0.8396946564885496,0.4908113403320312,0.086191259765625,9.287108239746093,25.80058823529412
2025-10-20T13:57:11.812927,-1.5954198473282444,0.29770992366412213,-0.4732824427480916,0.469263525390625,0.0526724365234375,9.344569079589844,26.64764705882353
2025-10-20T13:57:11.835654,-1.702290076335878,0.6259541984732825,-0.6030534351145038,0.565031591796875,-0.1149216796875,9.287108239746093,25.235882352941175
2025-10-20T13:57:11.852470,-1.9312977099236641,0.8320610687022901,-0.48091603053435117,0.45968671875,0.02633621826171875,9.244012609863281,25.894705882352945
2025-10-20T13:57:11.873718,-1.6488549618320612,0.8702290076335878,-0.6412213740458015,0.7062894897460937,0.031124621582031248,9.459490759277344,25.941764705882356
2025-10-20T13:57:11.896759,-1.7404580152671756,0.7480916030534351,-0.5343511450381679,0.6464344482421874,0.12689268798828124,9.272743029785156,26.64764705882353
2025-10-20T13:57:11.914018,-1.7557251908396947,0.7633587786259542,-0.5267175572519084,0.5722141967773438,0.12689268798828124,9.272743029785156,25.847647058823533
2025-10-20T13:57:11.933946,-1.5801526717557253,0.5419847328244275,-0.5725190839694656,0.469263525390625,-0.047884033203124995,9.291896643066405,25.894705882352945
2025-10-20T13:57:11.956568,-1.7099236641221374,0.7786259541984732,-0.6946564885496184,0.5698199951171875,0.1484405029296875,9.287108239746093,25.847647058823533
2025-10-20T13:57:11.975091,-1.465648854961832,0.4580152671755725,-0.7786259541984732,0.5267243652343749,-0.181959326171875,9.330203869628905,25.988823529411768
2025-10-20T13:57:11.993703,-1.4732824427480915,0.6641221374045801,-0.7404580152671756,0.4740519287109375,0.06943184814453125,9.222464794921875,25.941764705882356
2025-10-20T13:57:12.015608,-1.465648854961832,0.6106870229007634,-0.6412213740458015,0.36391865234375,0.00718260498046875,9.466673364257812,25.988823529411768
2025-10-20T13:57:12.035307,-1.5877862595419847,0.7022900763358778,-0.6335877862595419,0.5698199951171875,-0.11013327636718749,9.313444458007812,26.69470588235294
2025-10-20T13:57:12.053434,-1.2900763358778626,0.33587786259541985,-0.6946564885496184,0.4860229370117187,0.040701428222656245,9.198522778320312,25.941764705882356
2025-10-20T13:57:12.075509,-1.2748091603053435,0.5801526717557252,-0.6870229007633588,0.5578489868164063,0.0718260498046875,9.162609753417968,25.941764705882356
2025-10-20T13:57:12.096124,-1.297709923664122,0.44274809160305345,-0.6183206106870229,0.51714755859375,0.09337386474609374,9.41639512939453,25.235882352941175
2025-10-20T13:57:12.112961,-1.3435114503816794,0.1984732824427481,-0.5648854961832062,0.5315127685546874,-0.076614453125,9.351751684570312,25.235882352941175
2025-10-20T13:57:12.134690,-1.549618320610687,0.3816793893129771,-0.5267175572519084,0.5817910034179687,0.0718260498046875,9.287108239746093,25.941764705882356
2025-10-20T13:57:12.156596,-1.534351145038168,0.19083969465648856,-0.46564885496183206,0.5386953735351562,-0.12210428466796874,9.284714038085937,25.894705882352945
2025-10-20T13:57:12.174793,-1.9083969465648856,0.2824427480916031,-0.46564885496183206,0.59376201171875,0.11013327636718749,9.351751684570312,25.847647058823533
2025-10-20T13:57:12.196627,-0.06870229007633588,0.2366412213740458,-0.48091603053435117,0.5793968017578125,0.12449848632812499,9.272743029785156,25.894705882352945
2025-10-20T13:57:12.219531,-2.2213740458015265,0.09923664122137404,-0.3893129770992366,0.5243301635742187,-0.03591302490234375,9.478644372558593,25.941764705882356
2025-10-20T13:57:12.236366,-2.198473282442748,0.04580152671755725,-0.33587786259541985,0.7254431030273437,0.1292868896484375,9.49300958251953,26.69470588235294
2025-10-20T13:57:12.257120,-2.0763358778625953,-0.061068702290076333,-0.3053435114503817,0.5889736083984375,-0.05746083984375,9.3852705078125,25.988823529411768
2025-10-20T13:57:12.279747,-2.068702290076336,-0.1450381679389313,-0.3435114503816794,0.488417138671875,0.0383072265625,9.258377819824219,25.941764705882356
2025-10-20T13:57:12.297001,-2.3206106870229006,-0.030534351145038167,-0.3282442748091603,0.5339069702148437,0.2753331909179687,9.220070593261719,25.847647058823533
2025-10-20T13:57:12.316965,-3.877862595419847,-0.183206106870229,-0.5267175572519084,0.565031591796875,-0.01915361328125,9.299079248046874,25.894705882352945
2025-10-20T13:57:12.339549,-3.83206106870229,-0.3053435114503817,-0.3969465648854962,0.32082302246093747,0.1292868896484375,9.428366137695312,26.64764705882353
2025-10-20T13:57:12.358069,-1.83206106870229,-0.4198473282442748,-0.3893129770992366,0.5051765502929687,0.02154781494140625,9.30147344970703,25.894705882352945
2025-10-20T13:57:12.376703,-1.5725190839694656,-0.29770992366412213,-0.42748091603053434,0.59376201171875,0.0047884033203125,9.291896643066405,25.28294117647059
2025-10-20T13:57:12.398953,-1.8702290076335877,-0.6259541984732825,-0.46564885496183206,0.32561142578124996,0.05027823486328125,9.2320416015625,25.235882352941175
2025-10-20T13:57:12.418726,-1.7938931297709924,-0.6412213740458015,-0.4122137404580153,0.5363011718749999,0.26815058593749996,9.423577734375,25.235882352941175
2025-10-20T13:57:12.436066,-1.6946564885496183,-0.6946564885496184,-0.4198473282442748,0.3902548706054687,0.0047884033203125,9.368511096191405,25.894705882352945
2025-10-20T13:57:12.457916,-1.8854961832061068,-0.5114503816793893,-0.40458015267175573,0.5961562133789062,-0.08379705810546874,9.320627062988281,25.941764705882356
2025-10-20T13:57:12.479007,-2.1374045801526718,-0.16793893129770993,-0.44274809160305345,0.5578489868164063,0.1292868896484375,9.490615380859374,25.941764705882356
2025-10-20T13:57:12.495859,-2.0763358778625953,-0.366412213740458,-0.5954198473282443,0.5674257934570313,0.086191259765625,9.210493786621093,25.941764705882356
2025-10-20T13:57:12.517748,-2.1068702290076335,-0.2595419847328244,-0.4732824427480916,0.488417138671875,0.086191259765625,9.483432775878907,26.64764705882353
2025-10-20T13:57:12.540072,-2.2519083969465647,-0.183206106870229,-0.3435114503816794,0.5770026000976562,0.08379705810546874,9.126696728515624,25.235882352941175
2025-10-20T13:57:12.556881,-2.198473282442748,0.0,-0.5038167938931297,0.48123453369140623,0.05027823486328125,9.334992272949219,25.894705882352945
2025-10-20T13:57:12.578481,-2.3206106870229006,-0.1297709923664122,-0.4351145038167939,0.603338818359375,0.09576806640624999,9.45470235595703,25.894705882352945
2025-10-20T13:57:12.601489,-2.3053435114503817,0.32061068702290074,-0.5725190839694656,0.51714755859375,-0.00718260498046875,9.358934289550781,25.988823529411768
2025-10-20T13:57:12.618290,-2.2061068702290076,0.2824427480916031,-0.5877862595419847,0.4644751220703125,0.1292868896484375,9.311050256347656,26.64764705882353
2025-10-20T13:57:12.638820,-2.145038167938931,0.04580152671755725,-0.6335877862595419,0.5482721801757812,0.19153613281249998,9.332598071289063,25.894705882352945
2025-10-20T13:57:12.661357,-2.0763358778625953,0.5725190839694656,-0.6717557251908397,0.49320554199218747,0.06943184814453125,9.291896643066405,25.80058823529412
2025-10-20T13:57:12.678998,-1.8396946564885497,0.35877862595419846,-0.8625954198473282,0.6200982299804687,0.0,9.222464794921875,25.894705882352945
2025-10-20T13:57:12.698415,-2.0610687022900764,0.6030534351145038,-0.7175572519083969,0.5482721801757812,0.07900865478515624,9.296685046386719,25.847647058823533
2025-10-20T13:57:12.720968,-2.0381679389312977,0.4351145038167939,-0.7633587786259542,0.48123453369140623,0.07900865478515624,9.49300958251953,25.941764705882356
2025-10-20T13:57:12.738208,-1.9083969465648856,0.549618320610687,-0.9007633587786259,0.5626373901367188,0.18435352783203124,9.325415466308593,26.69470588235294
2025-10-20T13:57:12.758108,-1.2671755725190839,0.09923664122137404,-0.8702290076335878,0.7733271362304687,-0.17956512451171874,9.34696328125,25.894705882352945
2025-10-20T13:57:12.780500,-0.22137404580152673,0.366412213740458,-1.1450381679389312,0.7254431030273437,-0.0047884033203125,9.49300958251953,25.894705882352945
2025-10-20T13:57:12.798577,-0.22137404580152673,0.549618320610687,-1.0610687022900764,0.4572925170898437,-0.040701428222656245,9.270348828125,25.894705882352945
2025-10-20T13:57:12.817604,-0.32061068702290074,0.46564885496183206,-1.0534351145038168,0.7493851196289062,-0.0047884033203125,9.279925634765624,25.235882352941175
2025-10-20T13:57:12.839722,-0.7557251908396947,0.22137404580152673,-1.1603053435114503,0.584185205078125,0.07422025146484375,9.41639512939453,25.847647058823533
2025-10-20T13:57:12.858638,-0.5190839694656488,0.3053435114503817,-1.0916030534351144,0.49799394531249996,-0.05027823486328125,9.296685046386719,25.235882352941175
2025-10-20T13:57:12.876841,-0.3893129770992366,0.11450381679389313,-0.9847328244274809,0.6536170532226562,0.009576806640625,9.30147344970703,25.941764705882356
2025-10-20T13:57:12.898654,-0.7938931297709924,0.25190839694656486,-0.8854961832061069,0.4572925170898437,0.009576806640625,9.363722692871093,25.941764705882356
2025-10-20T13:57:12.918406,-0.8854961832061069,0.3511450381679389,-0.8549618320610687,0.49320554199218747,0.062249243164062495,9.287108239746093,25.988823529411768
2025-10-20T13:57:12.935726,-0.6259541984732825,0.24427480916030533,-0.9694656488549618,0.63206923828125,0.06464344482421874,9.33978067626953,25.235882352941175
2025-10-20T13:57:12.957661,-0.9541984732824428,1.9389312977099236,-0.8854961832061069,0.6775590698242188,0.1005564697265625,9.375693701171874,25.235882352941175
2025-10-20T13:57:12.978688,-1.2900763358778626,-0.022900763358778626,-0.9083969465648855,0.4740519287109375,0.055066638183593745,9.330203869628905,25.28294117647059
2025-10-20T13:57:12.995471,-1.099236641221374,0.19083969465648856,-0.8778625954198473,0.4572925170898437,-0.00239420166015625,9.181763366699219,25.847647058823533
2025-10-20T13:57:13.017188,-1.4198473282442747,0.16030534351145037,-0.7175572519083969,0.5339069702148437,0.10295067138671875,9.313444458007812,25.235882352941175
2025-10-20T13:57:13.039044,-1.5267175572519085,0.0916030534351145,-0.6030534351145038,0.603338818359375,0.06464344482421874,9.358934289550781,25.847647058823533
2025-10-20T13:57:13.055830,-0.007633587786259542,1.900763358778626,-0.6335877862595419,0.5291185668945312,0.076614453125,9.311050256347656,26.69470588235294
2025-10-20T13:57:13.078236,-2.122137404580153,0.10687022900763359,-0.5343511450381679,0.4836287353515625,0.076614453125,9.325415466308593,25.235882352941175
2025-10-20T13:57:13.101278,-2.404580152671756,-1.7557251908396947,-0.3893129770992366,0.6105214233398437,0.023942016601562498,9.423577734375,25.235882352941175
2025-10-20T13:57:13.118076,-2.8396946564885495,1.8931297709923665,-0.22900763358778625,0.4429273071289062,0.1197100830078125,9.179369165039063,26.69470588235294
2025-10-20T13:57:13.139058,-2.8091603053435112,-0.13740458015267176,-0.48854961832061067,0.565031591796875,-0.0383072265625,9.277531433105468,25.847647058823533
2025-10-20T13:57:13.161788,-3.0839694656488548,0.11450381679389313,-0.3053435114503817,0.5722141967773438,0.02633621826171875,9.349357482910156,26.69470588235294
2025-10-20T13:57:13.178578,-3.053435114503817,0.22900763358778625,-0.1450381679389313,0.49320554199218747,0.0,9.212887988281249,25.235882352941175
2025-10-20T13:57:13.199759,-3.198473282442748,0.33587786259541985,-0.2748091603053435,0.5458779785156249,0.0143652099609375,9.157821350097656,25.847647058823533
2025-10-20T13:57:13.222383,-3.122137404580153,-1.8244274809160306,-0.19083969465648856,0.7517793212890624,0.0047884033203125,9.30147344970703,25.988823529411768
2025-10-20T13:57:13.240131,-3.0076335877862594,-0.08396946564885496,-0.3511450381679389,0.565031591796875,-0.04548983154296875,9.246406811523437,25.941764705882356
2025-10-20T13:57:13.259967,-3.0076335877862594,1.9465648854961832,-0.2595419847328244,0.488417138671875,-0.0526724365234375,9.217676391601563,26.69470588235294
2025-10-20T13:57:13.282588,-2.5801526717557253,0.13740458015267176,-0.24427480916030533,0.5291185668945312,0.028730419921875,9.306261853027344,25.894705882352945
2025-10-20T13:57:13.301604,-2.2900763358778624,0.11450381679389313,-0.366412213740458,0.584185205078125,0.0383072265625,9.488221179199218,25.894705882352945
2025-10-20T13:57:13.320109,-2.213740458015267,0.31297709923664124,-0.22900763358778625,0.51714755859375,0.07900865478515624,9.481038574218749,25.894705882352945
2025-10-20T13:57:13.342306,-3.7480916030534353,0.3511450381679389,-0.3969465648854962,0.5626373901367188,0.13646949462890623,9.366116894531249,25.847647058823533
2025-10-20T13:57:13.362633,-1.618320610687023,0.22137404580152673,-0.25190839694656486,0.5698199951171875,0.055066638183593745,9.425971936035156,26.60058823529412
2025-10-20T13:57:13.379774,-1.6641221374045803,0.2900763358778626,-0.4122137404580153,0.5123591552734374,0.07422025146484375,9.34696328125,25.28294117647059
2025-10-20T13:57:13.401643,-1.6870229007633588,0.5267175572519084,-0.46564885496183206,0.6703764648437499,-0.08140285644531249,9.397241516113281,25.894705882352945
2025-10-20T13:57:13.423289,-1.3435114503816794,0.5038167938931297,-0.3816793893129771,0.4572925170898437,-0.13407529296874998,9.423577734375,25.941764705882356
2025-10-20T13:57:13.440196,-1.1603053435114503,0.40458015267175573,-0.5725190839694656,0.6464344482421874,0.033518823242187495,9.418789331054686,26.60058823529412
2025-10-20T13:57:13.462279,-1.0076335877862594,0.5267175572519084,-0.25190839694656486,0.5746083984375,-0.05985504150390625,9.275137231445312,25.235882352941175
2025-10-20T13:57:13.485177,-0.9465648854961832,0.4351145038167939,-0.3435114503816794,0.6081272216796875,-0.1292868896484375,9.366116894531249,25.847647058823533
2025-10-20T13:57:13.504427,-0.8015267175572519,0.5877862595419847,-0.4198473282442748,0.612915625,0.08858546142578125,9.356540087890625,25.894705882352945
2025-10-20T13:57:13.526971,-0.6564885496183206,0.42748091603053434,-0.4198473282442748,0.565031591796875,0.1484405029296875,9.380482104492186,25.28294117647059
2025-10-20T13:57:13.550053,-0.648854961832061,0.6946564885496184,-0.366412213740458,0.5793968017578125,0.031124621582031248,9.457096557617186,25.941764705882356
2025-10-20T13:57:13.568249,-0.4580152671755725,0.5114503816793893,-0.3282442748091603,0.5602431884765625,0.04548983154296875,9.34696328125,25.894705882352945
2025-10-20T13:57:13.588098,-0.5419847328244275,0.4580152671755725,-0.4961832061068702,0.5626373901367188,0.09337386474609374,9.423577734375,25.894705882352945
2025-10-20T13:57:13.610931,-0.6717557251908397,0.6412213740458015,-0.4198473282442748,0.5698199951171875,0.0718260498046875,9.323021264648437,25.941764705882356
2025-10-20T13:57:13.630004,-0.7786259541984732,0.3893129770992366,-0.4122137404580153,0.5363011718749999,0.1388636962890625,9.208099584960937,25.941764705882356
2025-10-20T13:57:13.648992,-0.7480916030534351,0.20610687022900764,-0.366412213740458,0.5339069702148437,0.105344873046875,9.303867651367186,25.235882352941175
2025-10-20T13:57:13.671297,-0.9312977099236641,0.33587786259541985,-0.3893129770992366,0.6153098266601562,0.11013327636718749,9.334992272949219,25.894705882352945
2025-10-20T13:57:13.690786,-1.0687022900763359,0.4580152671755725,-0.4198473282442748,0.5793968017578125,0.14604630126953125,9.193734375,25.894705882352945
2025-10-20T13:57:13.709259,-1.1755725190839694,0.22900763358778625,-0.26717557251908397,0.5602431884765625,0.07422025146484375,9.327809667968749,26.69470588235294
2025-10-20T13:57:13.731856,-1.549618320610687,0.37404580152671757,-0.29770992366412213,0.5434837768554687,0.10773907470703124,9.303867651367186,25.988823529411768
2025-10-20T13:57:13.751812,-1.618320610687023,0.19083969465648856,-0.16030534351145037,0.5219359619140624,0.10295067138671875,9.327809667968749,25.941764705882356
2025-10-20T13:57:13.769700,-1.8549618320610688,0.3282442748091603,-0.12213740458015267,0.4285620971679687,0.07422025146484375,9.315838659667968,25.941764705882356
2025-10-20T13:57:13.791759,-2.2519083969465647,0.12213740458015267,-0.17557251908396945,0.5482721801757812,0.06464344482421874,9.260772021484375,25.941764705882356
2025-10-20T13:57:13.812212,-2.1908396946564888,0.22137404580152673,-0.16030534351145037,0.5746083984375,-0.10295067138671875,9.162609753417968,25.941764705882356
2025-10-20T13:57:13.829726,-2.618320610687023,0.3969465648854962,-0.15267175572519084,0.5770026000976562,0.07900865478515624,9.241618408203124,25.235882352941175
2025-10-20T13:57:13.851890,-2.49618320610687,0.20610687022900764,-0.1297709923664122,0.4333505004882812,-0.0526724365234375,9.193734375,25.847647058823533
2025-10-20T13:57:13.873189,-2.83206106870229,0.29770992366412213,-0.22137404580152673,0.36631285400390623,0.19393033447265623,9.334992272949219,26.69470588235294
2025-10-20T13:57:13.890127,-2.717557251908397,0.09923664122137404,0.06870229007633588,0.6296750366210937,-0.05746083984375,9.244012609863281,25.894705882352945
2025-10-20T13:57:13.912265,-2.6412213740458017,0.10687022900763359,0.07633587786259542,0.34715924072265625,0.1197100830078125,9.112331518554686,25.941764705882356
2025-10-20T13:57:13.933994,-2.1526717557251906,0.25190839694656486,-0.21374045801526717,0.373495458984375,0.06943184814453125,9.325415466308593,25.847647058823533
2025-10-20T13:57:13.950899,-2.145038167938931,0.12213740458015267,-0.11450381679389313,0.4525041137695312,0.040701428222656245,9.279925634765624,26.69470588235294
2025-10-20T13:57:13.972923,-1.9694656488549618,1.900763358778626,-0.03816793893129771,0.469263525390625,0.11013327636718749,9.220070593261719,25.941764705882356
2025-10-20T13:57:13.995180,-2.099236641221374,-0.12213740458015267,-0.1297709923664122,0.565031591796875,-0.09576806640624999,9.483432775878907,25.941764705882356
2025-10-20T13:57:14.012127,-1.748091603053435,-0.030534351145038167,-0.030534351145038167,0.59376201171875,0.028730419921875,9.418789331054686,25.894705882352945
2025-10-20T13:57:14.034240,-1.8396946564885497,0.25190839694656486,-0.2900763358778626,0.5482721801757812,0.028730419921875,9.234435803222656,26.03588235294118
2025-10-20T13:57:14.057427,-1.6641221374045803,0.3816793893129771,-0.03816793893129771,0.3806780639648437,-0.023942016601562498,9.526528405761718,25.894705882352945
2025-10-20T13:57:14.074389,-2.2519083969465647,0.4198473282442748,0.03816793893129771,0.48123453369140623,0.028730419921875,9.265560424804686,25.941764705882356
2025-10-20T13:57:14.096760,-2.5419847328244276,0.13740458015267176,-1.900763358778626,0.7565677246093749,0.086191259765625,9.3086560546875,25.941764705882356
2025-10-20T13:57:14.120563,-2.3053435114503817,0.2900763358778626,-0.06870229007633588,0.55545478515625,-0.00718260498046875,9.30147344970703,26.69470588235294
2025-10-20T13:57:14.137478,-2.3969465648854964,0.33587786259541985,0.21374045801526717,0.5410895751953124,-0.10295067138671875,9.291896643066405,26.69470588235294
2025-10-20T13:57:14.158602,-2.7404580152671754,0.4961832061068702,0.09923664122137404,0.47644613037109373,0.06943184814453125,9.471461767578125,25.941764705882356
2025-10-20T13:57:14.181666,-2.6412213740458017,0.4961832061068702,0.12213740458015267,0.5003881469726562,0.201112939453125,9.382876306152344,25.235882352941175
2025-10-20T13:57:14.198549,-2.404580152671756,0.45038167938931295,0.2595419847328244,0.5985504150390625,0.12210428466796874,9.332598071289063,25.894705882352945
2025-10-20T13:57:14.219428,-2.5267175572519083,0.6335877862595419,0.08396946564885496,0.6057330200195312,0.031124621582031248,9.306261853027344,25.894705882352945
2025-10-20T13:57:14.242340,-2.6793893129770994,0.648854961832061,0.20610687022900764,0.565031591796875,0.016759411621093748,9.325415466308593,25.941764705882356
2025-10-20T13:57:14.260074,-2.4732824427480917,0.3435114503816794,0.24427480916030533,0.5458779785156249,0.21308394775390624,9.320627062988281,25.941764705882356
2025-10-20T13:57:14.279974,-2.4580152671755724,0.6030534351145038,0.25190839694656486,0.5961562133789062,0.1484405029296875,9.342174877929686,26.69470588235294
2025-10-20T13:57:14.302558,-2.435114503816794,0.3282442748091603,0.20610687022900764,0.5267243652343749,0.00718260498046875,9.248801013183593,25.235882352941175
2025-10-20T13:57:14.321593,-2.6412213740458017,0.1450381679389313,0.1450381679389313,0.5530605834960938,0.08379705810546874,9.241618408203124,25.894705882352945
2025-10-20T13:57:14.340146,-2.50381679389313,0.33587786259541985,0.2595419847328244,0.5770026000976562,0.009576806640625,9.323021264648437,25.235882352941175
2025-10-20T13:57:14.362460,-2.183206106870229,0.33587786259541985,-1.8854961832061068,0.49799394531249996,0.1484405029296875,9.315838659667968,26.64764705882353
2025-10-20T13:57:14.382864,-1.9618320610687023,0.31297709923664124,0.183206106870229,0.4740519287109375,0.0383072265625,9.220070593261719,25.941764705882356
2025-10-20T13:57:14.400103,-1.9312977099236641,-0.0916030534351145,0.12213740458015267,0.5817910034179687,0.047884033203124995,9.267954626464844,25.988823529411768
2025-10-20T13:57:14.422053,-1.8549618320610688,1.7557251908396947,0.26717557251908397,0.5386953735351562,0.047884033203124995,9.167398156738281,26.64764705882353
2025-10-20T13:57:14.443696,-1.465648854961832,-0.2366412213740458,0.20610687022900764,0.48123453369140623,-0.05985504150390625,9.124302526855468,25.941764705882356
2025-10-20T13:57:14.460607,-1.213740458015267,-0.061068702290076333,0.2366412213740458,0.4908113403320312,0.12449848632812499,9.17458076171875,25.941764705882356
2025-10-20T13:57:14.482513,-0.7480916030534351,-0.22900763358778625,1.8854961832061068,0.55545478515625,-0.11731588134765625,9.260772021484375,25.988823529411768
2025-10-20T13:57:14.504557,-0.25190839694656486,-0.1984732824427481,0.22137404580152673,0.5051765502929687,0.12210428466796874,9.241618408203124,25.235882352941175
2025-10-20T13:57:14.521456,0.24427480916030533,-0.48854961832061067,0.1450381679389313,0.6009446166992187,-0.02633621826171875,9.299079248046874,25.941764705882356
2025-10-20T13:57:14.543394,0.26717557251908397,-0.48854961832061067,0.19083969465648856,0.584185205078125,-0.02154781494140625,9.26316622314453,25.235882352941175
2025-10-20T13:57:14.564604,0.5114503816793893,-0.7022900763358778,0.16793893129770993,0.5027823486328125,0.0430956298828125,9.255983618164063,26.69470588235294
2025-10-20T13:57:14.581485,0.4732824427480916,-0.648854961832061,0.06870229007633588,0.4860229370117187,0.05985504150390625,9.457096557617186,26.64764705882353
2025-10-20T13:57:14.603507,-0.030534351145038167,-1.0687022900763359,0.21374045801526717,0.5961562133789062,0.0909796630859375,9.612719665527344,25.941764705882356
2025-10-20T13:57:14.625134,-0.8778625954198473,-1.534351145038168,0.19083969465648856,0.5506663818359374,0.19632453613281248,9.533711010742186,25.235882352941175
2025-10-20T13:57:14.642017,-1.8015267175572518,-2.0,0.4961832061068702,0.5003881469726562,0.16519991455078123,9.777919580078125,26.69470588235294
2025-10-20T13:57:14.663948,-3.0381679389312977,-1.8625954198473282,0.6335877862595419,0.5506663818359374,0.06464344482421874,9.658209497070311,25.235882352941175
2025-10-20T13:57:14.685959,-4.1603053435114505,-1.5877862595419847,0.7099236641221374,0.6775590698242188,0.28969840087890625,9.452308154296874,25.28294117647059
2025-10-20T13:57:14.702907,-4.557251908396947,-1.1755725190839694,0.8778625954198473,0.6871358764648438,0.07900865478515624,9.564835632324218,25.988823529411768
2025-10-20T13:57:14.724989,-4.969465648854962,-1.3893129770992367,1.251908396946565,0.3447650390625,0.12449848632812499,9.433154541015625,26.69470588235294
2025-10-20T13:57:14.747920,-5.137404580152672,-0.26717557251908397,1.16793893129771,0.5291185668945312,0.1005564697265625,9.33978067626953,26.64764705882353
2025-10-20T13:57:14.764826,-4.137404580152672,-0.2900763358778626,1.0305343511450382,0.7206546997070312,0.0143652099609375,9.13627353515625,25.894705882352945
2025-10-20T13:57:14.786820,-2.9236641221374047,0.48091603053435117,1.083969465648855,0.5865794067382812,-0.1149216796875,8.920795385742187,25.988823529411768
2025-10-20T13:57:14.810066,-3.7938931297709924,0.8625954198473282,1.16793893129771,0.47884033203125,-0.13646949462890623,8.896853369140624,25.235882352941175
2025-10-20T13:57:14.826974,-0.31297709923664124,1.2748091603053435,0.8778625954198473,0.6631938598632812,0.28012159423828126,8.743624462890624,25.235882352941175
2025-10-20T13:57:14.847856,1.213740458015267,1.3969465648854962,0.9694656488549618,0.4860229370117187,0.17956512451171874,8.935160595703124,25.941764705882356
2025-10-20T13:57:14.870865,3.8473282442748094,1.2900763358778626,0.7022900763358778,0.6967126831054687,0.0383072265625,9.1554271484375,25.941764705882356
2025-10-20T13:57:14.888617,1.8091603053435115,1.4274809160305344,0.6564885496183206,0.5051765502929687,0.19871873779296872,9.244012609863281,25.235882352941175
2025-10-20T13:57:14.908611,1.9312977099236641,1.3206106870229009,0.816793893129771,0.6871358764648438,0.10295067138671875,9.387664709472656,26.64764705882353
2025-10-20T13:57:14.931239,1.2061068702290076,1.1908396946564885,0.7404580152671756,0.47644613037109373,0.06464344482421874,9.323021264648437,25.941764705882356
2025-10-20T13:57:14.950256,0.2366412213740458,1.251908396946565,0.8854961832061069,0.40462008056640625,-0.00718260498046875,9.272743029785156,25.235882352941175
2025-10-20T13:57:14.968763,0.32061068702290074,1.2595419847328244,0.5267175572519084,0.5219359619140624,-0.07422025146484375,9.279925634765624,25.235882352941175
2025-10-20T13:57:14.991073,0.7175572519083969,1.0916030534351144,0.7862595419847328,0.47644613037109373,-0.016759411621093748,9.33978067626953,25.941764705882356
2025-10-20T13:57:15.011373,1.3358778625954197,1.549618320610687,0.6259541984732825,0.4644751220703125,-0.16998831787109375,9.196128576660156,25.235882352941175
2025-10-20T13:57:15.029315,2.3282442748091605,1.9465648854961832,0.42748091603053434,0.5865794067382812,-0.258573779296875,9.07163009033203,25.941764705882356
2025-10-20T13:57:15.051470,3.4885496183206106,1.9083969465648856,0.25190839694656486,0.469263525390625,-0.28012159423828126,9.2320416015625,26.03588235294118
2025-10-20T13:57:15.072547,4.580152671755725,2.4580152671755724,0.03816793893129771,0.316034619140625,-0.40462008056640625,9.239224206542968,25.80058823529412
2025-10-20T13:57:15.090098,4.984732824427481,2.4885496183206106,-0.1450381679389313,0.5722141967773438,-0.4285620971679687,9.294290844726563,26.03588235294118
2025-10-20T13:57:15.112084,5.656488549618321,2.9160305343511452,-0.3053435114503817,0.7517793212890624,-0.0143652099609375,9.074024291992187,26.69470588235294
2025-10-20T13:57:15.133270,5.824427480916031,2.8473282442748094,-0.3282442748091603,0.354341845703125,-0.21308394775390624,9.574412438964844,25.894705882352945
2025-10-20T13:57:15.150242,5.4961832061068705,2.6564885496183206,-0.5648854961832062,0.7110778930664062,0.28012159423828126,9.440337145996093,25.941764705882356
2025-10-20T13:57:15.172377,4.66412213740458,2.877862595419847,-0.3053435114503817,0.1867477294921875,-0.15322890625,9.143456140136719,26.64764705882353
2025-10-20T13:57:15.194904,3.7709923664122136,2.7480916030534353,-0.4961832061068702,0.29448680419921874,0.17238251953125,9.011775048828124,25.894705882352945
2025-10-20T13:57:15.211813,3.427480916030534,2.351145038167939,-0.25190839694656486,0.40222587890625,-0.1771709228515625,9.011775048828124,25.941764705882356
2025-10-20T13:57:15.233899,2.2900763358778624,2.1603053435114505,-0.15267175572519084,0.5003881469726562,0.603338818359375,9.14824454345703,25.941764705882356
2025-10-20T13:57:15.257357,0.2595419847328244,3.7557251908396947,0.13740458015267176,0.5961562133789062,0.9026140258789062,9.227253198242186,26.69470588235294
2025-10-20T13:57:15.274342,-2.8091603053435112,1.6106870229007633,0.4351145038167939,0.5315127685546874,1.20667763671875,9.725247143554688,26.69470588235294
2025-10-20T13:57:15.295032,-5.541984732824427,0.5954198473282443,1.0076335877862594,0.7900865478515624,1.4604630126953124,9.911994873046874,25.235882352941175
2025-10-20T13:57:15.318045,-7.9465648854961835,0.7022900763358778,1.5572519083969465,0.8714894042968749,1.908178723144531,10.184933862304687,25.28294117647059
2025-10-20T13:57:15.335813,-15.19083969465649,0.5038167938931297,3.068702290076336,0.4908113403320312,1.43652099609375,10.050858569335936,25.894705882352945
2025-10-20T13:57:15.355641,-18.84732824427481,-0.08396946564885496,5.083969465648855,0.6368576416015624,0.6416460449218749,10.01733974609375,25.28294117647059
2025-10-20T13:57:15.378336,-22.931297709923665,-0.8931297709923665,7.1679389312977095,0.8690952026367187,0.7445967163085937,10.081983190917969,25.894705882352945
2025-10-20T13:57:15.397376,-24.931297709923665,-1.6870229007633588,8.98473282442748,0.5722141967773438,0.201112939453125,10.019733947753906,26.64764705882353
2025-10-20T13:57:15.415808,-26.061068702290076,-1.8244274809160306,10.702290076335878,0.5434837768554687,-0.06464344482421874,9.773131176757811,25.28294117647059
2025-10-20T13:57:15.437883,-26.259541984732824,-0.06870229007633588,11.694656488549619,0.7230489013671875,-0.17238251953125,9.674968908691406,25.941764705882356
2025-10-20T13:57:15.457774,-24.46564885496183,-3.213740458015267,12.694656488549619,0.18435352783203124,-0.8092401611328125,9.2320416015625,25.894705882352945
2025-10-20T13:57:15.475327,-20.81679389312977,-3.312977099236641,12.83206106870229,0.411802685546875,-0.6775590698242188,9.09796630859375,25.941764705882356
2025-10-20T13:57:15.497434,-16.946564885496183,-4.778625954198473,12.717557251908397,0.469263525390625,-0.8714894042968749,8.834604125976561,25.988823529411768
2025-10-20T13:57:15.518627,-11.82442748091603,-4.984732824427481,12.312977099236642,0.2705447875976562,-0.47644613037109373,8.793902697753905,25.28294117647059
2025-10-20T13:57:15.535589,-7.770992366412214,-6.251908396946565,11.778625954198473,0.4213794921875,-0.7733271362304687,8.916006982421875,25.894705882352945
2025-10-20T13:57:15.557537,-0.4351145038167939,-5.931297709923665,11.274809160305344,0.689530078125,-0.6607996582031249,9.090783703613281,26.69470588235294
2025-10-20T13:57:15.579579,4.732824427480916,-8.48091603053435,10.625954198473282,0.622492431640625,-0.5913678100585937,9.356540087890625,25.894705882352945
2025-10-20T13:57:15.596516,7.488549618320611,-8.198473282442748,10.267175572519085,0.8762778076171874,-0.38307226562499996,8.635885388183594,25.988823529411768
2025-10-20T13:57:15.618624,8.511450381679388,-5.717557251908397,9.65648854961832,0.35673604736328124,0.1771709228515625,9.60793126220703,25.941764705882356
2025-10-20T13:57:15.641837,9.603053435114504,-6.396946564885496,9.091603053435115,0.5602431884765625,-0.5219359619140624,9.852139831542969,25.941764705882356
2025-10-20T13:57:15.658766,8.557251908396946,-3.549618320610687,8.595419847328245,0.4860229370117187,0.8786720092773437,9.205705383300781,26.03588235294118
2025-10-20T13:57:15.680143,11.381679389312977,-4.358778625954199,8.01526717557252,0.6751648681640625,0.3399766357421875,9.449913952636718,25.894705882352945
2025-10-20T13:57:15.703345,11.732824427480915,-2.9770992366412212,7.366412213740458,0.23223756103515625,0.2920926025390625,9.145850341796875,25.235882352941175
2025-10-20T13:57:15.720702,11.709923664122137,0.8625954198473282,7.480916030534351,1.199495031738281,0.49320554199218747,9.184157568359375,25.235882352941175
2025-10-20T13:57:15.740999,9.068702290076336,1.1908396946564885,7.282442748091603,0.6536170532226562,0.6416460449218749,9.131485131835937,25.235882352941175
2025-10-20T13:57:15.763794,10.091603053435115,3.7938931297709924,7.114503816793893,0.8355763793945312,0.7733271362304687,9.030928662109375,26.64764705882353
2025-10-20T13:57:15.782545,7.030534351145038,2.267175572519084,6.656488549618321,0.8547299926757812,0.32561142578124996,8.741230261230468,25.235882352941175
2025-10-20T13:57:15.801541,5.419847328244275,3.8625954198473282,6.938931297709924,0.6296750366210937,-0.2561795776367187,9.222464794921875,25.941764705882356
2025-10-20T13:57:15.824050,4.702290076335878,5.4961832061068705,7.0534351145038165,0.9696516723632812,0.5243301635742187,9.327809667968749,25.941764705882356
2025-10-20T13:57:15.843616,2.66412213740458,6.1603053435114505,7.7251908396946565,0.2537853759765625,0.5267243652343749,9.165003955078124,26.69470588235294
2025-10-20T13:57:15.861861,-0.12213740458015267,5.320610687022901,8.15267175572519,0.1197100830078125,-0.4572925170898437,8.655039001464843,25.988823529411768
2025-10-20T13:57:15.883855,-0.4580152671755725,3.8473282442748094,8.183206106870228,0.6679822631835937,-0.37828386230468747,9.311050256347656,25.235882352941175
2025-10-20T13:57:15.903747,0.21374045801526717,2.732824427480916,8.427480916030534,0.5602431884765625,-0.40222587890625,8.300697155761718,25.941764705882356
2025-10-20T13:57:15.921360,2.854961832061069,3.3206106870229006,8.145038167938932,0.33758243408203126,-0.7661445312499999,8.317456567382813,25.847647058823533
2025-10-20T13:57:15.943151,3.717557251908397,3.8473282442748094,8.114503816793894,0.3064578125,-0.28730419921875,8.705317236328124,25.941764705882356
2025-10-20T13:57:15.963438,5.6183206106870225,2.984732824427481,7.893129770992366,0.3950432739257812,-0.5051765502929687,8.834604125976561,26.69470588235294
2025-10-20T13:57:15.980520,7.572519083969466,0.030534351145038167,7.419847328244275,-0.033518823242187495,-0.2920926025390625,9.193734375,26.69470588235294
2025-10-20T13:57:16.002420,6.244274809160306,0.4198473282442748,7.374045801526718,0.6727706665039062,-0.41898529052734373,8.815450512695312,25.235882352941175
2025-10-20T13:57:16.023988,10.83206106870229,2.2213740458015265,6.595419847328245,0.5913678100585937,-0.5674257934570313,8.607154968261717,25.894705882352945
2025-10-20T13:57:16.040829,12.877862595419847,1.0534351145038168,6.465648854961832,0.7422025146484375,-0.04548983154296875,9.368511096191405,25.235882352941175
2025-10-20T13:57:16.062682,12.351145038167939,0.6793893129770993,5.931297709923665,0.33039982910156246,-0.1197100830078125,9.670180505371093,25.941764705882356
2025-10-20T13:57:16.085129,12.16030534351145,0.31297709923664124,5.625954198473282,-0.2561795776367187,0.07422025146484375,9.945513696289062,25.330000000000002
2025-10-20T13:57:16.101980,11.49618320610687,2.282442748091603,5.122137404580153,0.28012159423828126,0.2346317626953125,9.17458076171875,25.988823529411768
2025-10-20T13:57:16.123949,6.6106870229007635,2.5114503816793894,4.763358778625954,0.9002198242187499,0.1149216796875,9.533711010742186,26.64764705882353
2025-10-20T13:57:16.147087,2.0229007633587788,1.717557251908397,4.893129770992366,0.5147533569335937,0.699106884765625,9.909600671386718,25.28294117647059
2025-10-20T13:57:16.163978,-0.9236641221374046,4.786259541984733,5.091603053435114,-0.8020575561523438,-0.34237083740234375,7.8529814453124995,25.847647058823533
2025-10-20T13:57:16.184816,-1.0534351145038168,4.083969465648855,4.587786259541985,0.02633621826171875,0.09816226806640624,9.162609753417968,25.235882352941175
2025-10-20T13:57:16.207969,-2.0381679389312977,1.4580152671755726,4.900763358778626,0.7493851196289062,0.7062894897460937,9.5001921875,25.941764705882356
2025-10-20T13:57:16.225843,-6.625954198473282,1.6412213740458015,5.038167938931298,0.6967126831054687,0.6296750366210937,9.65342109375,26.69470588235294
2025-10-20T13:57:16.245503,-9.34351145038168,1.7633587786259541,5.0534351145038165,0.5027823486328125,1.0079588989257813,10.091559997558592,26.64764705882353
2025-10-20T13:57:16.268228,-11.381679389312977,2.595419847328244,5.259541984732825,0.63206923828125,1.3239935180664062,10.405200415039062,25.235882352941175
2025-10-20T13:57:16.287278,-16.236641221374047,0.015267175572519083,6.419847328244275,1.2976572998046874,1.0199299072265624,10.299855541992187,25.28294117647059
2025-10-20T13:57:16.305675,-20.61832061068702,3.3435114503816794,6.786259541984733,0.6919242797851562,1.0223241088867188,10.079588989257813,25.235882352941175
2025-10-20T13:57:16.327908,-23.045801526717558,3.8396946564885495,7.213740458015267,0.6368576416015624,1.1252747802734375,10.182539660644531,26.69470588235294
2025-10-20T13:57:16.348190,-26.801526717557252,2.8625954198473282,7.900763358778626,0.5482721801757812,1.5131354492187499,10.702081420898438,25.894705882352945
2025-10-20T13:57:16.365344,-31.862595419847327,2.900763358778626,9.129770992366412,0.9145850341796874,0.8643067993164062,10.311826550292968,25.330000000000002
2025-10-20T13:57:16.387158,-33.70229007633588,1.1374045801526718,9.977099236641221,1.1923124267578125,1.9991583862304687,9.9981861328125,25.988823529411768
2025-10-20T13:57:16.408702,-33.97709923664122,1.0916030534351144,10.946564885496183,0.8786720092773437,0.2753331909179687,9.536105212402344,25.988823529411768
2025-10-20T13:57:16.425679,-34.541984732824424,1.8091603053435115,11.488549618320612,0.6512228515624999,-0.16280571289062498,9.835380419921874,25.235882352941175
2025-10-20T13:57:16.447520,-35.19847328244275,1.0229007633587786,12.213740458015268,0.24899697265624998,-0.239420166015625,9.435548742675781,25.988823529411768
2025-10-20T13:57:16.469954,-32.06106870229008,1.099236641221374,12.885496183206106,0.6943184814453125,-0.3950432739257812,9.315838659667968,25.941764705882356
2025-10-20T13:57:16.486844,-26.549618320610687,-1.5419847328244274,12.511450381679388,0.4572925170898437,-0.507570751953125,8.643067993164061,25.988823529411768
2025-10-20T13:57:16.508751,-23.68702290076336,-0.007633587786259542,12.618320610687023,-0.11252747802734374,-0.737414111328125,8.844180932617187,26.03588235294118
2025-10-20T13:57:16.531801,-18.244274809160306,-2.053435114503817,12.122137404580153,0.05746083984375,-1.0534487304687499,8.228871105957031,25.847647058823533
2025-10-20T13:57:16.548674,-9.450381679389313,-3.1526717557251906,11.541984732824428,0.12449848632812499,-1.4508862060546874,8.233659509277343,25.941764705882356
2025-10-20T13:57:16.569550,-5.511450381679389,-4.900763358778626,10.595419847328245,0.2154781494140625,-1.3359645263671873,8.224082702636718,26.60058823529412
2025-10-20T13:57:16.592325,2.213740458015267,-5.030534351145038,9.610687022900763,0.3447650390625,-0.9648632690429687,8.003816149902343,25.941764705882356
2025-10-20T13:57:16.609621,9.435114503816793,-5.374045801526718,8.351145038167939,0.11731588134765625,-1.2018892333984375,8.224082702636718,26.69470588235294
2025-10-20T13:57:16.629660,14.099236641221374,-6.977099236641221,7.5038167938931295,0.565031591796875,0.0,8.238447912597655,26.69470588235294
2025-10-20T13:57:16.652276,15.17557251908397,-5.923664122137405,6.908396946564886,0.4285620971679687,-0.09337386474609374,9.442731347656249,26.64764705882353
2025-10-20T13:57:16.670431,18.46564885496183,-6.152671755725191,5.8396946564885495,0.928950244140625,-0.9959878906249999,9.035717065429687,25.235882352941175
2025-10-20T13:57:16.689635,23.251908396946565,-5.770992366412214,5.465648854961832,0.612915625,-0.5793968017578125,10.101136804199218,26.69470588235294
2025-10-20T13:57:16.712046,21.916030534351144,-6.603053435114504,5.183206106870229,0.63206923828125,-0.22266075439453123,9.720458740234374,25.235882352941175
2025-10-20T13:57:16.731047,20.938931297709924,-5.206106870229007,4.885496183206107,0.35194764404296874,-0.36152445068359373,9.165003955078124,25.988823529411768
2025-10-20T13:57:16.749416,22.732824427480917,-5.312977099236641,4.419847328244275,0.6607996582031249,-0.0526724365234375,9.610325463867188,25.894705882352945
2025-10-20T13:57:16.771749,20.580152671755727,-2.0381679389312977,4.8320610687022905,0.7326257080078125,0.24660277099609373,9.145850341796875,26.69470588235294
2025-10-20T13:57:16.792034,18.259541984732824,-1.4427480916030535,4.931297709923665,-0.10773907470703124,-0.4213794921875,9.287108239746093,26.03588235294118
2025-10-20T13:57:16.809313,20.572519083969464,-5.748091603053435,4.748091603053435,0.8188169677734375,-0.29927520751953124,8.422801440429687,25.988823529411768
2025-10-20T13:57:16.831216,19.31297709923664,-1.366412213740458,4.717557251908397,0.488417138671875,-0.39743747558593745,9.188945971679686,25.941764705882356
2025-10-20T13:57:16.852782,16.923664122137403,-2.6564885496183206,5.022900763358779,0.7445967163085937,0.2561795776367187,9.045293872070312,26.69470588235294
2025-10-20T13:57:16.869684,16.732824427480917,-0.732824427480916,4.694656488549619,0.6655880615234374,0.5865794067382812,8.573636145019531,26.69470588235294
2025-10-20T13:57:16.891711,16.106870229007633,-0.42748091603053434,5.122137404580153,0.2705447875976562,-0.023942016601562498,8.91840118408203,26.64764705882353
2025-10-20T13:57:16.914155,12.65648854961832,0.4961832061068702,5.488549618320611,0.36391865234375,-0.19393033447265623,8.901641772460938,25.941764705882356
2025-10-20T13:57:16.931039,11.213740458015268,0.6717557251908397,5.061068702290076,0.49799394531249996,0.033518823242187495,9.399635717773437,26.69470588235294
2025-10-20T13:57:16.952976,11.01526717557252,0.8244274809160306,5.152671755725191,0.7661445312499999,-0.3136404174804687,9.859322436523437,26.64764705882353
2025-10-20T13:57:16.976041,10.679389312977099,-0.007633587786259542,5.083969465648855,0.6847416748046875,0.46686932373046874,8.951920007324219,25.941764705882356
2025-10-20T13:57:16.992926,8.061068702290076,0.5648854961832062,4.862595419847328,0.9145850341796874,0.0047884033203125,9.658209497070311,25.941764705882356
2025-10-20T13:57:17.013810,7.66412213740458,0.7251908396946565,5.068702290076335,0.18435352783203124,-0.19153613281249998,9.222464794921875,25.235882352941175
2025-10-20T13:57:17.036560,2.900763358778626,2.351145038167939,4.893129770992366,0.4908113403320312,0.277727392578125,9.009380847167968,25.894705882352945
2025-10-20T13:57:17.053915,3.2595419847328246,1.6946564885496183,4.4961832061068705,0.7565677246093749,0.2705447875976562,9.284714038085937,25.28294117647059
2025-10-20T13:57:17.074001,1.5267175572519085,1.4732824427480915,1.9923664122137406,0.814028564453125,0.3232172241210937,9.65342109375,25.235882352941175
2025-10-20T13:57:17.096490,-1.0076335877862594,3.2977099236641223,3.3587786259541983,0.33758243408203126,0.49320554199218747,9.631873278808593,25.941764705882356
2025-10-20T13:57:17.114628,-2.312977099236641,0.13740458015267176,3.0610687022900764,0.7062894897460937,0.41419688720703124,10.235212097167969,25.988823529411768
2025-10-20T13:57:17.134211,-3.2900763358778624,3.404580152671756,2.404580152671756,0.8930372192382812,0.6392518432617187,10.333374365234375,25.235882352941175
2025-10-20T13:57:17.156511,-6.412213740458015,2.435114503816794,1.5114503816793894,0.00239420166015625,0.09576806640624999,10.347739575195313,25.894705882352945
2025-10-20T13:57:17.177320,-11.122137404580153,5.351145038167939,1.4961832061068703,0.9959878906249999,0.5003881469726562,9.311050256347656,25.988823529411768
2025-10-20T13:57:17.197719,-13.213740458015268,5.32824427480916,1.450381679389313,0.7230489013671875,0.17238251953125,9.739612353515625,26.03588235294118
2025-10-20T13:57:17.220078,-14.67175572519084,4.900763358778626,1.1984732824427482,1.1348515869140625,1.6735469604492186,10.517727893066406,25.988823529411768
2025-10-20T13:57:17.239138,-17.35114503816794,5.137404580152672,1.2595419847328244,1.0390835205078124,1.35990654296875,9.832986218261718,25.941764705882356
2025-10-20T13:57:17.257613,-19.49618320610687,3.984732824427481,1.3740458015267176,0.7541735229492187,1.1420341918945311,10.395623608398436,25.941764705882356
2025-10-20T13:57:17.279820,-20.82442748091603,3.9160305343511452,1.5267175572519085,0.5339069702148437,0.9026140258789062,9.964667309570311,26.64764705882353
2025-10-20T13:57:17.299728,-21.82442748091603,3.9160305343511452,1.5801526717557253,0.7709329345703124,0.5291185668945312,9.904812268066406,25.28294117647059
2025-10-20T13:57:17.317299,-22.900763358778626,5.564885496183206,1.7938931297709924,0.8020575561523438,-0.28730419921875,10.448296044921875,25.847647058823533
2025-10-20T13:57:17.339445,-21.786259541984734,6.595419847328245,2.267175572519084,-0.51714755859375,0.04548983154296875,9.866505041503906,26.64764705882353
2025-10-20T13:57:17.360687,-21.893129770992367,3.2519083969465647,2.198473282442748,1.1420341918945311,0.5386953735351562,9.09796630859375,26.08294117647059
2025-10-20T13:57:17.377579,-21.114503816793892,2.030534351145038,2.6946564885496183,0.3854664672851562,0.11013327636718749,9.315838659667968,26.64764705882353
2025-10-20T13:57:17.399718,-20.603053435114504,-0.2366412213740458,3.122137404580153,0.8882488159179687,-0.5386953735351562,8.889670764160156,26.03588235294118
2025-10-20T13:57:17.421859,-16.83206106870229,-0.7786259541984732,3.564885496183206,0.2753331909179687,-0.6727706665039062,8.410830432128906,25.235882352941175
2025-10-20T13:57:17.438743,-13.893129770992367,-1.4198473282442747,3.763358778625954,0.5003881469726562,-0.9840168823242187,8.406042028808594,26.08294117647059
2025-10-20T13:57:17.460783,-11.007633587786259,-5.66412213740458,3.946564885496183,0.38307226562499996,-0.411802685546875,8.652644799804687,25.988823529411768
2025-10-20T13:57:17.483865,-7.862595419847328,-3.33587786259542,3.9160305343511452,0.20350714111328125,-0.016759411621093748,8.667010009765624,25.941764705882356
2025-10-20T13:57:17.500763,-4.221374045801527,-4.312977099236641,3.8396946564885495,0.19153613281249998,0.05746083984375,8.585607153320312,26.03588235294118
2025-10-20T13:57:17.522529,-2.946564885496183,-4.213740458015267,3.6412213740458017,0.32561142578124996,-0.8978256225585937,8.90643017578125,25.941764705882356
2025-10-20T13:57:17.545757,-1.9923664122137406,-5.213740458015267,3.4198473282442747,0.8212111694335937,-0.29448680419921874,9.162609753417968,25.28294117647059
2025-10-20T13:57:17.562624,-0.4961832061068702,-4.374045801526718,2.9770992366412212,0.5434837768554687,-0.3854664672851562,9.066841687011719,25.847647058823533
2025-10-20T13:57:17.583369,0.22900763358778625,-2.931297709923664,2.931297709923664,0.44053310546874996,-0.27293898925781246,9.464279162597656,25.941764705882356
2025-10-20T13:57:17.606255,0.3053435114503817,-2.984732824427481,2.2213740458015265,0.3399766357421875,-0.6512228515624999,9.60793126220703,25.941764705882356
2025-10-20T13:57:17.624007,1.9389312977099236,-2.885496183206107,1.6488549618320612,0.7326257080078125,0.0718260498046875,8.75320126953125,26.03588235294118
2025-10-20T13:57:17.643969,2.763358778625954,-2.33587786259542,1.1068702290076335,0.49320554199218747,-0.3232172241210937,9.265560424804686,25.988823529411768
2025-10-20T13:57:17.666739,3.2977099236641223,-0.9923664122137404,0.6412213740458015,0.5578489868164063,-0.12689268798828124,8.904035974121093,25.988823529411768
2025-10-20T13:57:17.685796,4.0,-0.5648854961832062,0.2366412213740458,0.5410895751953124,-0.258573779296875,8.999804040527343,26.64764705882353
2025-10-20T13:57:17.704294,8.389312977099237,0.35877862595419846,-0.3511450381679389,0.44532150878906246,-0.3184288208007812,8.70771143798828,25.941764705882356
2025-10-20T13:57:17.726750,10.312977099236642,0.8473282442748091,-0.7022900763358778,0.4525041137695312,-0.5434837768554687,8.870517150878905,25.941764705882356
2025-10-20T13:57:17.747146,12.877862595419847,1.2671755725190839,-1.099236641221374,0.49320554199218747,-0.5889736083984375,8.611943371582031,25.941764705882356
2025-10-20T13:57:17.764640,15.50381679389313,1.083969465648855,-1.5877862595419847,0.44532150878906246,-0.48123453369140623,8.580818749999999,26.60058823529412
2025-10-20T13:57:17.786933,17.129770992366414,0.9923664122137404,-1.816793893129771,0.5219359619140624,-0.4860229370117187,8.621520178222656,25.28294117647059
2025-10-20T13:57:17.808196,18.96946564885496,1.3129770992366412,-3.900763358778626,0.33758243408203126,-0.39743747558593745,8.303091357421874,25.941764705882356
2025-10-20T13:57:17.825067,21.34351145038168,1.366412213740458,-2.4885496183206106,0.30406361083984373,-0.36391865234375,8.805873706054687,26.03588235294118
2025-10-20T13:57:17.847451,21.946564885496183,1.3053435114503817,-2.5572519083969465,0.44532150878906246,-0.43574470214843747,8.506598498535157,25.235882352941175
2025-10-20T13:57:17.869585,22.557251908396946,1.1297709923664123,-2.4885496183206106,0.316034619140625,-0.3232172241210937,8.532934716796875,25.941764705882356
2025-10-20T13:57:17.886449,23.557251908396946,0.8396946564885496,-2.816793893129771,0.3136404174804687,-0.23702596435546874,8.664615808105468,26.69470588235294
2025-10-20T13:57:17.908673,23.51145038167939,1.8396946564885497,-2.7251908396946565,0.5099649536132812,0.11731588134765625,8.877699755859375,25.988823529411768
2025-10-20T13:57:17.932018,22.17557251908397,-0.7480916030534351,-2.2900763358778624,0.5291185668945312,0.2609679809570312,8.875305554199219,26.03588235294118
2025-10-20T13:57:17.948892,18.770992366412212,-1.1526717557251909,-1.7328244274809161,0.4070142822265625,0.5051765502929687,9.210493786621093,26.69470588235294
2025-10-20T13:57:17.970306,16.328244274809162,-1.0916030534351144,-1.0687022900763359,0.6177040283203125,0.0526724365234375,9.260772021484375,25.235882352941175
2025-10-20T13:57:17.993421,13.450381679389313,-0.6030534351145038,-0.7175572519083969,0.4836287353515625,0.5698199951171875,9.368511096191405,26.69470588235294
2025-10-20T13:57:18.010311,7.190839694656488,0.13740458015267176,-0.07633587786259542,0.41898529052734373,1.1133037719726562,9.677363110351562,25.941764705882356
2025-10-20T13:57:18.031030,1.984732824427481,0.5038167938931297,0.816793893129771,0.33758243408203126,0.6512228515624999,10.149020837402343,25.941764705882356
2025-10-20T13:57:18.053961,-4.061068702290076,1.1374045801526718,1.015267175572519,0.2561795776367187,0.143652099609375,9.758765966796874,25.235882352941175
2025-10-20T13:57:18.071730,-7.580152671755725,1.8473282442748091,1.0610687022900764,0.6296750366210937,0.3016694091796875,10.1131078125,25.235882352941175
2025-10-20T13:57:18.091571,-10.206106870229007,0.5038167938931297,1.4198473282442747,0.9720458740234375,-0.6751648681640625,10.213664282226562,25.988823529411768
2025-10-20T13:57:18.114196,-12.83206106870229,0.9770992366412213,1.1297709923664123,0.38786066894531246,1.0702081420898437,9.72285294189453,25.941764705882356
2025-10-20T13:57:18.132827,-16.740458015267176,1.3358778625954197,1.251908396946565,0.1388636962890625,0.6871358764648438,11.314997045898437,26.03588235294118
2025-10-20T13:57:18.151787,-20.83206106870229,1.0687022900763359,0.9312977099236641,0.4429273071289062,-0.0430956298828125,10.096348400878906,25.894705882352945
2025-10-20T13:57:18.174477,-23.671755725190838,-1.6870229007633588,1.5038167938931297,1.120486376953125,0.8571241943359375,10.790666882324219,25.235882352941175
2025-10-20T13:57:18.194261,-27.9618320610687,2.183206106870229,1.2595419847328244,0.9026140258789062,0.948103857421875,10.134655627441406,26.03588235294118
2025-10-20T13:57:18.212866,-30.290076335877863,2.404580152671756,0.6717557251908397,0.7110778930664062,0.9457096557617187,10.165780249023436,25.988823529411768
2025-10-20T13:57:18.235386,-32.961832061068705,2.9923664122137406,0.6793893129770993,0.4644751220703125,0.9193734375,9.823409411621093,25.28294117647059
2025-10-20T13:57:18.255760,-30.427480916030536,3.5572519083969465,1.8931297709923665,0.7805097412109374,1.5753846923828123,10.54645831298828,25.894705882352945
2025-10-20T13:57:18.273084,-32.656488549618324,2.2748091603053435,-1.9465648854961832,0.6081272216796875,1.5131354492187499,10.223241088867187,25.894705882352945
2025-10-20T13:57:18.295321,-33.48854961832061,3.9160305343511452,-0.09923664122137404,0.30885201416015623,1.1252747802734375,9.600748657226562,25.235882352941175
2025-10-20T13:57:18.316565,-29.3206106870229,3.7404580152671754,0.07633587786259542,0.6631938598632812,1.1324573852539062,9.727641345214844,26.69470588235294
2025-10-20T13:57:18.333507,-28.900763358778626,3.49618320610687,0.5267175572519084,0.45010991210937495,0.8188169677734375,9.679757312011718,26.64764705882353
2025-10-20T13:57:18.355707,-29.83969465648855,2.312977099236641,1.2366412213740459,0.354341845703125,0.023942016601562498,9.220070593261719,25.941764705882356
2025-10-20T13:57:18.377811,-27.282442748091604,0.22900763358778625,1.2748091603053435,0.33758243408203126,-0.32082302246093747,8.889670764160156,25.894705882352945
2025-10-20T13:57:18.394717,-20.137404580152673,-0.5801526717557252,1.1221374045801527,0.011971008300781249,-0.27293898925781246,8.892064965820312,26.69470588235294
2025-10-20T13:57:18.416660,-16.66412213740458,-0.6870229007633588,1.2213740458015268,0.38307226562499996,-0.3591302490234375,9.0021982421875,26.69470588235294
2025-10-20T13:57:18.439651,-14.778625954198473,-1.3053435114503817,1.717557251908397,0.47165772705078124,-0.7972691528320313,8.63827958984375,26.69470588235294
2025-10-20T13:57:18.456535,-6.694656488549619,-2.7022900763358777,1.3511450381679388,0.258573779296875,-0.9911994873046874,8.379705810546875,25.988823529411768
2025-10-20T13:57:18.478499,-3.8625954198473282,-3.6793893129770994,0.9847328244274809,0.29448680419921874,-0.7709329345703124,8.808267907714843,26.69470588235294
2025-10-20T13:57:18.501811,0.6946564885496184,-4.732824427480916,0.8396946564885496,0.46208092041015625,-0.679953271484375,8.690952026367187,26.69470588235294
2025-10-20T13:57:18.518765,4.473282442748092,-6.022900763358779,0.35877862595419846,0.19153613281249998,-0.8762778076171874,9.107543115234375,25.941764705882356
2025-10-20T13:57:18.540828,8.648854961832061,-5.305343511450381,0.04580152671755725,0.2609679809570312,-0.55545478515625,8.939948999023438,25.941764705882356
2025-10-20T13:57:18.563651,8.977099236641221,-4.312977099236641,0.20610687022900764,-0.22026655273437498,-1.6543933471679686,8.789114294433594,25.28294117647059
2025-10-20T13:57:18.580517,9.877862595419847,-5.175572519083969,-0.20610687022900764,0.842758984375,-0.70868369140625,8.135497241210937,26.69470588235294
2025-10-20T13:57:18.602036,15.213740458015268,-4.732824427480916,-0.8625954198473282,0.4070142822265625,0.040701428222656245,8.755595471191405,26.69470588235294
2025-10-20T13:57:18.624995,15.435114503816793,-2.687022900763359,-0.6183206106870229,0.18914193115234373,-0.6153098266601562,9.504980590820312,25.941764705882356
2025-10-20T13:57:18.641896,15.053435114503817,-2.618320610687023,-0.7099236641221374,0.5626373901367188,0.27293898925781246,8.810662109374999,25.28294117647059
2025-10-20T13:57:18.662559,17.53435114503817,-0.4351145038167939,-1.0687022900763359,0.7445967163085937,0.1484405029296875,9.253589416503905,25.988823529411768
2025-10-20T13:57:18.685247,14.366412213740459,-0.007633587786259542,-0.8931297709923665,0.488417138671875,-0.28730419921875,8.70771143798828,25.988823529411768
2025-10-20T13:57:18.702564,13.083969465648854,2.3893129770992365,-0.9541984732824428,0.70868369140625,-0.17477672119140625,8.80347950439453,26.03588235294118
2025-10-20T13:57:18.722851,14.664122137404581,3.2442748091603053,-1.4122137404580153,0.565031591796875,-0.4860229370117187,8.89924757080078,26.03588235294118
2025-10-20T13:57:18.745347,13.526717557251908,3.3435114503816794,-0.06870229007633588,0.469263525390625,-0.2609679809570312,8.619125976562499,26.03588235294118
2025-10-20T13:57:18.763576,12.061068702290076,3.4580152671755724,-1.9541984732824427,0.34715924072265625,-0.6679822631835937,9.138667736816405,25.988823529411768
2025-10-20T13:57:18.782965,11.854961832061068,3.9923664122137406,-2.267175572519084,0.7302315063476562,0.02154781494140625,8.949525805664061,25.941764705882356
2025-10-20T13:57:18.805238,11.625954198473282,4.877862595419847,-2.2900763358778624,0.70868369140625,-0.17956512451171874,9.176974963378905,26.69470588235294
2025-10-20T13:57:18.824285,10.51908396946565,5.412213740458015,-2.3740458015267176,0.3184288208007812,-0.0526724365234375,8.671798413085938,26.03588235294118
2025-10-20T13:57:18.842795,10.82442748091603,4.6183206106870225,-2.3206106870229006,0.5386953735351562,-0.033518823242187495,8.798691101074219,25.235882352941175
2025-10-20T13:57:18.865161,10.84732824427481,3.8091603053435112,-2.1526717557251906,0.09816226806640624,-0.51714755859375,7.410054138183593,25.28294117647059
2025-10-20T13:57:18.885560,11.50381679389313,-0.5114503816793893,-2.122137404580153,0.36631285400390623,-0.19871873779296872,8.583212951660157,25.235882352941175
2025-10-20T13:57:18.902785,12.801526717557252,-1.0076335877862594,-2.3587786259541983,0.4572925170898437,-0.21787235107421873,8.520963708496094,26.03588235294118
2025-10-20T13:57:18.924884,11.511450381679388,-2.3893129770992365,-2.0839694656488548,0.6871358764648438,0.1292868896484375,9.093177905273437,25.235882352941175
2025-10-20T13:57:18.946657,10.50381679389313,-1.9923664122137406,-2.1755725190839694,0.5674257934570313,0.28490999755859375,9.423577734375,26.69470588235294
2025-10-20T13:57:18.963631,9.473282442748092,-1.3053435114503817,-1.9770992366412214,0.6153098266601562,0.16041151123046873,9.179369165039063,25.941764705882356
2025-10-20T13:57:18.985752,6.137404580152672,-0.6412213740458015,-1.5572519083969465,0.5291185668945312,-0.06703764648437499,9.567229833984374,26.03588235294118
2025-10-20T13:57:19.008344,4.519083969465649,-0.183206106870229,-1.3511450381679388,0.6416460449218749,0.22505495605468748,9.05965908203125,25.235882352941175
2025-10-20T13:57:19.025261,4.7251908396946565,-2.404580152671756,-1.5648854961832062,0.34715924072265625,0.1197100830078125,9.327809667968749,25.988823529411768
2025-10-20T13:57:19.047542,4.091603053435114,-4.099236641221374,-1.2748091603053435,0.59376201171875,0.3232172241210937,9.97184991455078,25.988823529411768
2025-10-20T13:57:19.070776,3.8931297709923665,-5.412213740458015,-1.0916030534351144,0.6655880615234374,-0.2059013427734375,10.539275708007812,26.08294117647059
2025-10-20T13:57:19.087760,-4.091603053435114,-1.213740458015267,-0.648854961832061,0.258573779296875,0.7015010864257812,10.036493359375,26.69470588235294
2025-10-20T13:57:19.108775,-4.717557251908397,-0.03816793893129771,-0.3511450381679389,0.19632453613281248,0.21308394775390624,10.484209069824217,26.69470588235294
2025-10-20T13:57:19.132046,-4.595419847328245,-3.7480916030534353,-0.3816793893129771,1.0630255371093749,0.0430956298828125,10.465055456542968,25.28294117647059
2025-10-20T13:57:19.149797,-11.007633587786259,-0.4732824427480916,-0.030534351145038167,-0.32082302246093747,-0.00718260498046875,10.54645831298828,25.988823529411768
2025-10-20T13:57:19.169755,-11.923664122137405,0.19083969465648856,0.7022900763358778,1.3168109130859373,0.7206546997070312,12.07874737548828,26.69470588235294
2025-10-20T13:57:19.192655,-14.351145038167939,-2.053435114503817,0.4732824427480916,0.1867477294921875,0.5147533569335937,9.995791931152343,26.03588235294118
2025-10-20T13:57:19.211727,-17.61832061068702,-3.099236641221374,0.8091603053435115,0.16041151123046873,0.06703764648437499,9.291896643066405,26.69470588235294
2025-10-20T13:57:19.230437,-17.977099236641223,-3.6564885496183206,0.7404580152671756,0.33039982910156246,0.9169792358398436,9.871293444824218,25.235882352941175
2025-10-20T13:57:19.253032,-21.442748091603054,-1.5572519083969465,0.5648854961832062,0.8834604125976562,0.02154781494140625,9.89523546142578,25.988823529411768
2025-10-20T13:57:19.272991,-18.641221374045802,0.3893129770992366,-0.08396946564885496,0.8571241943359375,1.0079588989257813,9.397241516113281,26.64764705882353
2025-10-20T13:57:19.290842,-18.519083969465647,3.900763358778626,-0.21374045801526717,0.36631285400390623,1.1085153686523437,9.354145886230468,25.235882352941175
2025-10-20T13:57:19.313022,-17.81679389312977,1.0305343511450382,-0.7480916030534351,1.139639990234375,1.0175357055664063,10.491391674804687,26.69470588235294
2025-10-20T13:57:19.333752,-19.977099236641223,3.984732824427481,-1.282442748091603,0.8164227661132812,1.37906015625,9.926360083007811,26.03588235294118
2025-10-20T13:57:19.350668,-20.625954198473284,1.5114503816793894,-1.8702290076335877,0.3016694091796875,1.3407529296874998,9.842563024902343,25.941764705882356
2025-10-20T13:57:19.372597,-20.61832061068702,1.8549618320610688,-1.8854961832061068,0.6440402465820312,1.0582371337890624,10.17056865234375,25.988823529411768
2025-10-20T13:57:19.394214,-21.19083969465649,2.366412213740458,-1.7251908396946565,0.201112939453125,1.1444283935546875,10.014945544433592,26.60058823529412
2025-10-20T13:57:19.411149,-21.85496183206107,2.2061068702290076,-1.3969465648854962,0.21068974609375,0.6727706665039062,9.023746057128905,25.988823529411768
2025-10-20T13:57:19.433263,-18.80916030534351,4.419847328244275,-1.450381679389313,0.30406361083984373,0.70868369140625,10.081983190917969,26.03588235294118
2025-10-20T13:57:19.455752,-15.083969465648854,4.351145038167939,-1.3587786259541985,0.5626373901367188,-1.0989385620117187,9.423577734375,25.235882352941175
2025-10-20T13:57:19.472678,-11.870229007633588,2.717557251908397,-1.4045801526717556,0.47644613037109373,-0.6392518432617187,9.41639512939453,25.941764705882356
2025-10-20T13:57:19.494926,-9.34351145038168,2.099236641221374,-2.030534351145038,0.7326257080078125,-0.4740519287109375,9.220070593261719,25.941764705882356
2025-10-20T13:57:19.518054,-7.793893129770993,0.6106870229007634,-1.8396946564885497,0.5530605834960938,-0.22026655273437498,9.299079248046874,25.235882352941175
2025-10-20T13:57:19.535378,-4.854961832061068,2.595419847328244,-2.2442748091603053,-0.00718260498046875,-0.3495534423828125,8.779537487792968,26.69470588235294
2025-10-20T13:57:19.556286,-3.648854961832061,3.33587786259542,-2.7022900763358777,0.9002198242187499,0.0,8.568847741699217,25.988823529411768
2025-10-20T13:57:19.579142,3.1068702290076335,4.9541984732824424,-3.1297709923664123,0.3758896606445312,-0.25139117431640623,8.772354882812499,26.03588235294118
2025-10-20T13:57:19.596922,4.847328244274809,3.015267175572519,-3.236641221374046,0.45010991210937495,-0.4165910888671875,8.877699755859375,25.941764705882356
2025-10-20T13:57:19.617515,8.49618320610687,1.6641221374045803,-3.801526717557252,0.3064578125,-0.8403647827148437,8.24802471923828,25.941764705882356
2025-10-20T13:57:19.640497,13.297709923664122,3.877862595419847,-3.114503816793893,0.12689268798828124,-1.5227122558593749,8.465897070312499,26.03588235294118
2025-10-20T13:57:19.658722,12.351145038167939,2.0763358778625953,-1.83206106870229,0.7038952880859375,-1.5322890624999999,8.33182177734375,25.988823529411768
2025-10-20T13:57:19.677996,15.763358778625955,2.854961832061069,-1.9083969465648856,1.2378022583007813,-1.9512743530273435,8.190563879394531,26.08294117647059
2025-10-20T13:57:19.700570,19.85496183206107,0.06870229007633588,3.1297709923664123,1.4413093994140624,-1.905784521484375,8.068459594726562,26.08294117647059
2025-10-20T13:57:19.720059,17.65648854961832,0.19083969465648856,5.740458015267175,1.4125789794921875,-1.1875240234375,8.257601525878906,26.69470588235294
2025-10-20T13:57:19.738091,20.87786259541985,-1.1297709923664123,6.961832061068702,0.8164227661132812,-0.1388636962890625,8.990227233886719,26.03588235294118
2025-10-20T13:57:19.760034,23.702290076335878,-0.1984732824427481,7.679389312977099,0.9097966308593749,-0.2609679809570312,8.853757739257812,25.988823529411768
2025-10-20T13:57:19.780353,25.870229007633586,-3.351145038167939,7.465648854961832,1.0606313354492187,-0.086191259765625,8.513781103515624,26.08294117647059
2025-10-20T13:57:19.797481,23.47328244274809,-6.114503816793893,7.396946564885496,0.7350199096679687,0.7972691528320313,9.449913952636718,25.941764705882356
2025-10-20T13:57:19.819362,22.137404580152673,-7.938931297709924,7.030534351145038,0.33758243408203126,0.3016694091796875,8.580818749999999,25.988823529411768
2025-10-20T13:57:19.840957,15.763358778625955,-8.977099236641221,7.450381679389313,0.22744915771484372,-0.028730419921875,9.181763366699219,25.988823529411768
2025-10-20T13:57:19.857826,17.49618320610687,-9.419847328244275,6.99236641221374,0.45010991210937495,0.27293898925781246,9.552864624023437,25.235882352941175
2025-10-20T13:57:19.879667,15.725190839694656,-7.099236641221374,6.9541984732824424,0.3950432739257812,0.4213794921875,9.430760339355468,25.941764705882356
2025-10-20T13:57:19.902196,10.717557251908397,-5.137404580152672,7.183206106870229,0.8068459594726562,0.32561142578124996,9.588777648925781,26.03588235294118
2025-10-20T13:57:19.919117,4.9465648854961835,-2.4732824427480917,7.297709923664122,0.584185205078125,0.7254431030273437,9.78031378173828,26.69470588235294
2025-10-20T13:57:19.941460,2.198473282442748,-3.2900763358778624,7.961832061068702,0.411802685546875,-0.7613561279296874,8.961496813964843,25.894705882352945
2025-10-20T13:57:19.965163,0.12213740458015267,-3.068702290076336,7.603053435114504,0.6248866333007812,0.33758243408203126,10.371681591796875,26.69470588235294
2025-10-20T13:57:19.982091,-3.381679389312977,-3.3053435114503817,7.931297709923665,0.5674257934570313,0.19632453613281248,10.151415039062499,26.64764705882353
2025-10-20T13:57:20.005387,-4.076335877862595,-0.5648854961832062,7.488549618320611,0.8403647827148437,-0.00718260498046875,9.710881933593749,25.235882352941175
2025-10-20T13:57:20.028798,-7.312977099236641,-1.6717557251908397,7.488549618320611,0.689530078125,0.40940848388671874,9.871293444824218,26.69470588235294
2025-10-20T13:57:20.045699,-8.786259541984732,0.4961832061068702,7.145038167938932,0.9576806640625,0.028730419921875,10.929530578613281,25.235882352941175
2025-10-20T13:57:20.066390,-12.129770992366412,0.03816793893129771,7.0534351145038165,0.7254431030273437,0.7206546997070312,9.560047229003906,26.69470588235294
2025-10-20T13:57:20.089340,-14.717557251908397,2.8625954198473282,7.076335877862595,0.33758243408203126,0.37828386230468747,9.418789331054686,25.235882352941175
2025-10-20T13:57:20.107083,-17.198473282442748,0.5419847328244275,6.778625954198473,0.6967126831054687,0.3399766357421875,10.050858569335936,26.69470588235294
2025-10-20T13:57:20.127169,-20.19083969465649,3.1526717557251906,6.931297709923665,0.7038952880859375,0.21787235107421873,9.943119494628906,26.08294117647059
2025-10-20T13:57:20.149617,-22.18320610687023,2.900763358778626,7.0,0.584185205078125,0.5722141967773438,9.409212524414063,25.28294117647059
2025-10-20T13:57:20.168224,-24.778625954198475,2.9160305343511452,7.236641221374046,0.5817910034179687,0.44053310546874996,9.447519750976562,25.988823529411768
2025-10-20T13:57:20.187172,-23.870229007633586,2.9083969465648853,7.068702290076335,0.689530078125,0.15322890625,10.172962854003906,25.941764705882356
2025-10-20T13:57:20.209409,-25.50381679389313,5.106870229007634,7.2748091603053435,0.6248866333007812,0.17477672119140625,9.957484704589843,25.235882352941175
2025-10-20T13:57:20.228431,-28.3206106870229,4.351145038167939,5.862595419847328,0.718260498046875,0.5363011718749999,9.732429748535155,25.988823529411768
2025-10-20T13:57:20.247159,-29.18320610687023,4.251908396946565,7.633587786259542,0.8475473876953125,0.5746083984375,10.199299072265624,25.28294117647059
2025-10-20T13:57:20.269665,-28.450381679389313,4.854961832061068,7.763358778625954,0.6057330200195312,0.6081272216796875,10.20169327392578,25.28294117647059
2025-10-20T13:57:20.289569,-30.61832061068702,4.862595419847328,8.427480916030534,1.0199299072265624,0.46208092041015625,9.926360083007811,25.988823529411768
2025-10-20T13:57:20.307159,-31.221374045801525,5.641221374045801,8.732824427480915,0.7158662963867187,0.3495534423828125,9.725247143554688,25.988823529411768
2025-10-20T13:57:20.329152,-28.083969465648856,6.572519083969466,8.595419847328245,0.5626373901367188,-0.1484405029296875,9.49300958251953,25.988823529411768
2025-10-20T13:57:20.350307,-24.244274809160306,6.412213740458015,8.900763358778626,0.6967126831054687,-0.13646949462890623,9.399635717773437,26.03588235294118
2025-10-20T13:57:20.367305,-21.419847328244273,6.938931297709924,8.687022900763358,0.5339069702148437,-0.59376201171875,9.437942944335937,26.08294117647059
2025-10-20T13:57:20.389427,-15.83969465648855,4.900763358778626,8.282442748091603,0.5410895751953124,-0.7852981445312499,8.607154968261717,25.988823529411768
2025-10-20T13:57:20.411868,-6.259541984732825,2.6259541984732824,7.33587786259542,0.3902548706054687,-0.8762778076171874,8.815450512695312,25.988823529411768
2025-10-20T13:57:20.428805,2.4580152671755724,2.2290076335877864,6.595419847328245,0.23702596435546874,-1.1228805786132812,8.245630517578125,26.08294117647059
2025-10-20T13:57:20.450907,5.32824427480916,4.3816793893129775,5.900763358778626,0.11252747802734374,-0.8499415893554687,8.152256652832031,26.69470588235294
2025-10-20T13:57:20.474306,9.19083969465649,3.3435114503816794,5.702290076335878,0.6943184814453125,-0.34237083740234375,9.124302526855468,25.988823529411768
2025-10-20T13:57:20.491219,11.083969465648854,1.6946564885496183,5.9465648854961835,0.3495534423828125,0.21787235107421873,8.532934716796875,26.03588235294118
2025-10-20T13:57:20.511858,13.870229007633588,0.4961832061068702,4.061068702290076,1.0079588989257813,0.48123453369140623,8.853757739257812,26.03588235294118
2025-10-20T13:57:20.534847,16.557251908396946,0.5419847328244275,5.33587786259542,-0.3950432739257812,-1.1731588134765625,8.061276989746093,26.03588235294118
2025-10-20T13:57:20.552677,21.96946564885496,2.4732824427480917,4.5038167938931295,0.18914193115234373,-1.1061211669921875,8.91840118408203,26.69470588235294
2025-10-20T13:57:20.572564,24.580152671755727,1.9312977099236641,3.9618320610687023,-0.17238251953125,0.5243301635742187,8.755595471191405,26.03588235294118
2025-10-20T13:57:20.595189,23.404580152671755,-3.183206106870229,3.572519083969466,-0.28012159423828126,-0.36152445068359373,8.889670764160156,25.235882352941175
2025-10-20T13:57:20.613834,24.137404580152673,-7.679389312977099,2.7022900763358777,0.28012159423828126,0.12210428466796874,8.283937744140625,26.69470588235294
2025-10-20T13:57:20.632924,20.404580152671755,-8.0,0.7938931297709924,-0.63206923828125,0.6919242797851562,7.941566906738281,26.03588235294118
2025-10-20T13:57:20.655405,18.51145038167939,-10.534351145038167,-5.740458015267175,-0.9121908325195311,1.3239935180664062,9.488221179199218,25.28294117647059
2025-10-20T13:57:20.674920,10.251908396946565,-8.427480916030534,-7.961832061068702,0.42377369384765623,1.2713210815429687,9.464279162597656,25.235882352941175
2025-10-20T13:57:20.692896,3.946564885496183,-4.6183206106870225,-8.282442748091603,0.7110778930664062,-0.40222587890625,8.817844714355468,26.08294117647059
2025-10-20T13:57:20.715104,10.625954198473282,-2.198473282442748,-9.786259541984732,0.9911994873046874,0.296881005859375,8.978256225585938,26.69470588235294
2025-10-20T13:57:20.735429,19.51145038167939,-1.5954198473282444,-10.053435114503817,0.5003881469726562,0.34237083740234375,8.93755479736328,26.03588235294118
2025-10-20T13:57:20.752648,16.16030534351145,-0.5038167938931297,-9.748091603053435,0.047884033203124995,-0.6057330200195312,8.552088330078124,25.235882352941175
2025-10-20T13:57:20.774772,13.0,-7.076335877862595,-9.412213740458014,0.699106884765625,-0.37828386230468747,8.573636145019531,26.69470588235294
2025-10-20T13:57:20.796474,17.282442748091604,-10.931297709923664,-7.824427480916031,0.22266075439453123,-1.20667763671875,8.40125362548828,25.330000000000002
2025-10-20T13:57:20.813449,12.13740458015267,-8.83206106870229,-9.045801526717558,0.8259995727539062,0.40222587890625,9.909600671386718,26.03588235294118
2025-10-20T13:57:20.835575,6.984732824427481,-6.9465648854961835,-8.206106870229007,0.6631938598632812,0.26336218261718747,9.758765966796874,25.988823529411768
2025-10-20T13:57:20.858153,4.175572519083969,0.37404580152671757,-8.595419847328245,1.005564697265625,0.2059013427734375,9.138667736816405,25.988823529411768
2025-10-20T13:57:20.875055,8.816793893129772,0.04580152671755725,-9.923664122137405,0.12449848632812499,-1.3431471313476562,9.145850341796875,25.941764705882356
2025-10-20T13:57:20.897110,4.786259541984733,-0.9007633587786259,-10.022900763358779,0.6392518432617187,0.33039982910156246,8.916006982421875,25.28294117647059
2025-10-20T13:57:20.920472,5.824427480916031,-2.427480916030534,-9.954198473282442,-0.16519991455078123,-0.852335791015625,9.763554370117188,25.988823529411768
2025-10-20T13:57:20.937453,-1.251908396946565,-5.1679389312977095,-8.961832061068701,1.0965443603515623,0.7038952880859375,9.65342109375,26.03588235294118
2025-10-20T13:57:20.959019,-8.603053435114504,-1.4809160305343512,-7.9541984732824424,1.0773907470703123,-0.5219359619140624,8.846575134277343,26.69470588235294
2025-10-20T13:57:20.982082,-7.259541984732825,0.32061068702290074,-8.13740458015267,-0.2705447875976562,-0.5267243652343749,9.423577734375,25.988823529411768
2025-10-20T13:57:20.998984,-7.694656488549619,1.5572519083969465,-7.541984732824427,-0.8571241943359375,0.36631285400390623,9.236830004882812,26.08294117647059
2025-10-20T13:57:21.019844,-14.351145038167939,0.0,-6.259541984732825,1.180341418457031,-0.8283937744140625,9.083601098632812,25.941764705882356
2025-10-20T13:57:21.042711,-16.251908396946565,-1.534351145038168,-6.00763358778626,0.9864110839843749,-1.1013327636718748,9.325415466308593,26.69470588235294
2025-10-20T13:57:21.060487,-13.908396946564885,2.2061068702290076,-5.763358778625954,0.5099649536132812,1.0414777221679687,10.40041201171875,26.03588235294118
2025-10-20T13:57:21.080370,-17.709923664122137,-3.030534351145038,-4.526717557251908,0.8571241943359375,0.8810662109374999,11.355698474121093,26.08294117647059
2025-10-20T13:57:21.102957,-20.709923664122137,-0.5877862595419847,-4.458015267175573,0.6248866333007812,0.6584054565429687,9.047688073730468,25.988823529411768
2025-10-20T13:57:21.121584,-22.259541984732824,2.9923664122137406,-4.244274809160306,0.6344634399414062,0.07422025146484375,10.01015714111328,26.64764705882353
2025-10-20T13:57:21.140605,-24.52671755725191,3.381679389312977,-4.2748091603053435,0.23702596435546874,0.28012159423828126,9.756371765136718,26.64764705882353
2025-10-20T13:57:21.163270,-24.916030534351144,3.122137404580153,-4.145038167938932,0.4525041137695312,0.6488286499023437,9.873687646484374,26.03588235294118
2025-10-20T13:57:21.182757,-23.87786259541985,3.8244274809160306,-4.190839694656488,0.9792284790039062,0.689530078125,10.297461340332031,26.03588235294118
2025-10-20T13:57:21.200965,-25.251908396946565,4.435114503816794,-3.984732824427481,0.4261678955078125,1.1707646118164061,9.964667309570311,25.988823529411768
2025-10-20T13:57:21.223472,-26.954198473282442,5.061068702290076,-3.3053435114503817,0.6296750366210937,0.6871358764648438,9.698910925292969,25.941764705882356
2025-10-20T13:57:21.243794,-25.389312977099237,5.603053435114504,-2.877862595419847,0.9792284790039062,0.3902548706054687,9.533711010742186,25.235882352941175
2025-10-20T13:57:21.261071,-22.450381679389313,4.99236641221374,-1.748091603053435,0.6296750366210937,0.28969840087890625,9.610325463867188,26.69470588235294
2025-10-20T13:57:21.283142,-24.709923664122137,4.99236641221374,0.5725190839694656,1.5921441040039062,-0.6296750366210937,9.193734375,25.28294117647059
2025-10-20T13:57:21.304741,-21.801526717557252,6.2748091603053435,2.8931297709923665,0.6272808349609375,-1.0965443603515623,8.183381274414062,25.988823529411768
2025-10-20T13:57:21.321653,-13.221374045801527,4.854961832061068,4.923664122137405,1.1659762084960936,-0.9265560424804687,9.05965908203125,25.988823529411768
2025-10-20T13:57:21.343460,-8.541984732824428,5.137404580152672,6.702290076335878,1.158793603515625,-1.1563994018554686,10.024522351074218,26.03588235294118
2025-10-20T13:57:21.365905,-6.557251908396947,3.50381679389313,7.015267175572519,0.9097966308593749,-1.01514150390625,8.765172277832031,25.988823529411768
2025-10-20T13:57:21.382798,0.5267175572519084,2.9770992366412212,-0.19083969465648856,-0.3591302490234375,-1.4413093994140624,8.29351455078125,25.330000000000002
2025-10-20T13:57:21.404946,5.66412213740458,2.0916030534351147,0.9618320610687023,0.5147533569335937,-1.70467158203125,8.63827958984375,25.941764705882356
2025-10-20T13:57:21.428337,7.320610687022901,0.4580152671755725,3.6564885496183206,0.928950244140625,-2.0757728393554684,8.635885388183594,26.08294117647059
2025-10-20T13:57:21.445314,11.870229007633588,1.5114503816793894,4.267175572519084,0.4333505004882812,-1.2282254516601563,8.429984045410155,26.130000000000003
2025-10-20T13:57:21.466019,18.015267175572518,0.9694656488549618,4.854961832061068,0.09576806640624999,-2.001552587890625,8.12113203125,25.988823529411768
2025-10-20T13:57:21.488962,21.022900763358777,0.22137404580152673,4.67175572519084,0.08140285644531249,-1.2952630981445312,8.238447912597655,26.64764705882353
2025-10-20T13:57:21.506733,24.984732824427482,-2.9083969465648853,3.8091603053435112,-0.01915361328125,-0.35194764404296874,8.233659509277343,25.988823529411768
2025-10-20T13:57:21.526752,31.129770992366414,-2.9160305343511452,2.763358778625954,-0.1292868896484375,-0.7900865478515624,8.769960681152343,25.941764705882356
2025-10-20T13:57:21.549441,30.251908396946565,-5.198473282442748,1.618320610687023,1.0726023437499999,0.3136404174804687,8.655039001464843,26.03588235294118
2025-10-20T13:57:21.568527,28.946564885496183,-5.290076335877862,1.1068702290076335,-0.10295067138671875,-1.0702081420898437,8.547299926757812,25.28294117647059
2025-10-20T13:57:21.586997,29.931297709923665,-4.488549618320611,0.2595419847328244,0.20829554443359374,-0.07422025146484375,8.204929089355469,25.235882352941175
2025-10-20T13:57:21.609373,28.358778625954198,-3.931297709923664,-0.2595419847328244,0.7781155395507812,0.05985504150390625,9.083601098632812,26.03588235294118
2025-10-20T13:57:21.629747,27.870229007633586,-4.877862595419847,-1.0,0.6488286499023437,0.15322890625,9.260772021484375,25.235882352941175
2025-10-20T13:57:21.647149,27.045801526717558,-3.3206106870229006,-1.2442748091603053,-0.10773907470703124,0.9217676391601562,8.623914379882812,25.988823529411768
2025-10-20T13:57:21.669348,25.244274809160306,-4.114503816793893,-1.1297709923664123,0.37828386230468747,0.3806780639648437,9.042899670410156,25.28294117647059
2025-10-20T13:57:21.690577,19.053435114503817,-4.251908396946565,-0.9007633587786259,0.6392518432617187,0.7493851196289062,9.662997900390625,26.03588235294118
2025-10-20T13:57:21.707464,12.938931297709924,-1.4885496183206106,-0.2824427480916031,0.7781155395507812,0.612915625,9.270348828125,26.69470588235294
2025-10-20T13:57:21.729422,8.106870229007633,-1.2900763358778626,0.15267175572519084,1.1037269653320312,0.7637503295898437,9.900023864746093,26.69470588235294
2025-10-20T13:57:21.751455,4.595419847328245,-0.24427480916030533,0.5343511450381679,0.5410895751953124,-0.12449848632812499,10.029310754394531,26.69470588235294
2025-10-20T13:57:21.768394,0.31297709923664124,2.4122137404580153,0.648854961832061,0.8355763793945312,0.15322890625,10.072406384277343,25.235882352941175
2025-10-20T13:57:21.790480,-8.320610687022901,1.2366412213740459,0.732824427480916,0.9552864624023437,0.13168109130859373,10.254365710449218,26.64764705882353
2025-10-20T13:57:21.813678,-11.86259541984733,0.366412213740458,0.8778625954198473,0.8547299926757812,0.45010991210937495,9.890447058105469,25.235882352941175
2025-10-20T13:57:21.830610,-12.938931297709924,1.3511450381679388,0.8549618320610687,1.2569558715820313,0.6368576416015624,9.64623848876953,25.235882352941175
2025-10-20T13:57:21.852141,-16.65648854961832,-0.7938931297709924,0.9465648854961832,1.199495031738281,1.20667763671875,10.268730920410155,25.988823529411768
2025-10-20T13:57:21.875241,-21.46564885496183,2.1297709923664123,0.42748091603053434,0.3495534423828125,0.7565677246093749,9.744400756835937,25.941764705882356
2025-10-20T13:57:21.892163,-23.69465648854962,0.015267175572519083,-0.7557251908396947,0.19871873779296872,0.6081272216796875,10.251971508789062,25.988823529411768
2025-10-20T13:57:21.912892,-23.48854961832061,4.0458015267175576,-1.5954198473282444,0.4070142822265625,0.6871358764648438,10.235212097167969,25.941764705882356
2025-10-20T13:57:21.935912,-27.65648854961832,2.7557251908396947,-3.213740458015267,0.6703764648437499,0.8188169677734375,9.387664709472656,26.03588235294118
2025-10-20T13:57:21.953654,-26.641221374045802,1.5190839694656488,-3.236641221374046,0.28730419921875,0.4908113403320312,9.53131680908203,25.988823529411768
2025-10-20T13:57:21.973672,-29.61832061068702,0.6030534351145038,-2.7480916030534353,0.8643067993164062,0.2705447875976562,10.058041174316406,25.988823529411768
2025-10-20T13:57:21.996181,-27.480916030534353,0.4732824427480916,-2.213740458015267,0.584185205078125,0.6775590698242188,9.739612353515625,25.988823529411768
2025-10-20T13:57:22.014832,-28.900763358778626,1.7404580152671756,-1.5267175572519085,0.22744915771484372,0.49320554199218747,10.160991845703125,26.03588235294118
2025-10-20T13:57:22.033764,-29.908396946564885,1.9389312977099236,-0.549618320610687,-0.44532150878906246,1.1468225952148436,9.397241516113281,25.988823529411768
2025-10-20T13:57:22.056237,-31.099236641221374,0.04580152671755725,-0.7251908396946565,0.488417138671875,0.8738836059570312,9.861716638183593,26.03588235294118
2025-10-20T13:57:22.075840,-28.435114503816795,2.3053435114503817,-0.6183206106870229,0.7158662963867187,0.833182177734375,9.935936889648437,26.03588235294118
2025-10-20T13:57:22.093809,-28.374045801526716,2.633587786259542,-0.7786259541984732,0.8475473876953125,0.8092401611328125,9.986215124511718,26.03588235294118
2025-10-20T13:57:22.115687,-27.801526717557252,1.3969465648854962,-0.6030534351145038,0.9097966308593749,0.86191259765625,9.203311181640624,25.988823529411768
2025-10-20T13:57:22.136042,-24.045801526717558,1.4809160305343512,-0.7480916030534351,0.7062894897460937,0.5530605834960938,9.9981861328125,25.988823529411768
2025-10-20T13:57:22.153177,-20.977099236641223,0.48091603053435117,-0.9923664122137404,0.967257470703125,-0.023942016601562498,9.720458740234374,25.235882352941175
2025-10-20T13:57:22.175410,-18.549618320610687,1.7099236641221374,-0.8473282442748091,0.5458779785156249,-0.3758896606445312,9.042899670410156,26.64764705882353
2025-10-20T13:57:22.200016,-11.381679389312977,2.312977099236641,-1.900763358778626,0.36391865234375,-0.8283937744140625,8.911218579101561,26.69470588235294
2025-10-20T13:57:22.216886,-2.9923664122137406,0.9465648854961832,-5.931297709923665,-0.699106884765625,-0.3495534423828125,8.99501563720703,25.28294117647059
2025-10-20T13:57:22.238890,-0.29770992366412213,0.10687022900763359,-9.13740458015267,-0.0143652099609375,-0.47644613037109373,9.050082275390624,26.69470588235294
2025-10-20T13:57:22.262274,0.8854961832061069,0.030534351145038167,-9.381679389312977,-0.12210428466796874,-1.1659762084960936,8.29351455078125,25.988823529411768
2025-10-20T13:57:22.279167,7.541984732824427,0.21374045801526717,-10.0,0.51714755859375,-0.5530605834960938,9.066841687011719,25.988823529411768
2025-10-20T13:57:22.300385,11.312977099236642,2.404580152671756,-10.48091603053435,0.0,-1.2737152832031249,8.805873706054687,25.988823529411768
2025-10-20T13:57:22.323701,15.007633587786259,2.3206106870229006,-11.114503816793894,0.2059013427734375,-0.7445967163085937,8.307879760742187,26.64764705882353
2025-10-20T13:57:22.340580,21.442748091603054,1.1297709923664123,-11.694656488549619,0.13646949462890623,-1.3215993164062498,8.367734802246094,25.988823529411768
2025-10-20T13:57:22.361021,26.137404580152673,0.04580152671755725,-12.19083969465649,0.39983167724609375,-1.1085153686523437,8.710105639648438,26.69470588235294
2025-10-20T13:57:22.383676,29.52671755725191,1.6870229007633588,-10.870229007633588,0.6703764648437499,-2.597708801269531,8.585607153320312,26.03588235294118
2025-10-20T13:57:22.401400,33.67175572519084,-1.1374045801526718,-8.099236641221374,1.3407529296874998,-3.3327287109375,8.315062365722655,25.988823529411768
2025-10-20T13:57:22.421024,36.14503816793893,-2.877862595419847,-4.083969465648855,1.4245499877929686,-3.0142998901367184,8.377311608886718,25.988823529411768
2025-10-20T13:57:22.443629,35.13740458015267,-3.198473282442748,-1.6564885496183206,1.8004396484374998,-2.0733786376953125,8.532934716796875,26.69470588235294
2025-10-20T13:57:22.462660,31.931297709923665,-1.213740458015267,-0.5343511450381679,1.0845733520507812,-0.8667010009765624,8.465897070312499,26.03588235294118
2025-10-20T13:57:22.481043,29.603053435114504,-0.3969465648854962,0.3435114503816794,0.9840168823242187,-0.7398083129882812,8.475473876953124,26.03588235294118
2025-10-20T13:57:22.503339,27.458015267175572,-0.1984732824427481,0.03816793893129771,0.8810662109374999,-0.2609679809570312,7.663839514160156,25.377058823529413
2025-10-20T13:57:22.523661,32.35114503816794,-1.0076335877862594,-0.7633587786259542,0.4381389038085937,0.0430956298828125,8.961496813964843,26.03588235294118
2025-10-20T13:57:22.540738,31.16793893129771,-1.5954198473282444,-1.0687022900763359,0.21068974609375,0.05027823486328125,8.738836059570312,26.69470588235294
2025-10-20T13:57:22.562633,32.05343511450382,-1.0,-1.1984732824427482,0.41419688720703124,0.5458779785156249,8.865728747558594,26.08294117647059
2025-10-20T13:57:22.584231,30.610687022900763,-3.5419847328244276,-1.5419847328244274,0.5961562133789062,0.28730419921875,10.512939489746094,26.69470588235294
2025-10-20T13:57:22.601101,27.198473282442748,-2.366412213740458,-1.5572519083969465,0.5602431884765625,0.852335791015625,8.865728747558594,26.03588235294118
2025-10-20T13:57:22.623141,23.129770992366414,-3.6793893129770994,-1.282442748091603,0.1292868896484375,0.852335791015625,9.861716638183593,26.69470588235294
2025-10-20T13:57:22.646028,12.709923664122137,1.816793893129771,-0.8396946564885496,1.2378022583007813,0.20350714111328125,10.702081420898438,25.988823529411768
2025-10-20T13:57:22.662906,5.206106870229007,3.099236641221374,-0.2595419847328244,0.5746083984375,0.6751648681640625,9.016563452148437,26.177058823529414
2025-10-20T13:57:22.684339,1.3969465648854962,3.33587786259542,0.22137404580152673,0.44053310546874996,0.9097966308593749,9.749189160156249,26.03588235294118
2025-10-20T13:57:22.707572,-5.923664122137405,3.5801526717557253,0.5114503816793893,1.218648645019531,1.4915876342773438,10.321403356933594,26.03588235294118
2025-10-20T13:57:22.724859,-15.15267175572519,3.2595419847328246,1.3435114503816794,0.6823474731445313,1.5251064575195312,10.053252770996092,26.69470588235294
2025-10-20T13:57:22.744892,-19.64885496183206,0.07633587786259542,2.2748091603053435,0.7398083129882812,1.2880804931640624,9.583989245605467,26.69470588235294
2025-10-20T13:57:22.767525,-25.633587786259543,-0.6870229007633588,2.099236641221374,0.3495534423828125,2.114080065917969,11.085153686523437,26.03588235294118
2025-10-20T13:57:22.785686,-33.41984732824427,1.7099236641221374,0.9694656488549618,0.39743747558593745,1.4700398193359374,10.024522351074218,25.235882352941175
2025-10-20T13:57:22.804907,-40.10687022900763,-0.9694656488549618,1.5877862595419847,-0.06464344482421874,0.7781155395507812,8.980650427246093,26.69470588235294
2025-10-20T13:57:22.827461,-43.458015267175576,-1.5190839694656488,2.16793893129771,1.8243816650390623,2.001552587890625,11.65736788330078,26.03588235294118
2025-10-20T13:57:22.846920,-47.29007633587786,0.19083969465648856,2.6412213740458017,0.7805097412109374,0.9050082275390624,9.696516723632811,26.03588235294118
