timestamp,gyro_x,gyro_y,gyro_z,acc_x,acc_y,acc_z,temp
2025-10-20T13:55:38.647763,1.9465648854961832,-1.1450381679389312,-1.0687022900763359,0.5434837768554687,0.2561795776367187,8.95670841064453,25.424117647058825
2025-10-20T13:55:38.664873,-0.366412213740458,-1.4961832061068703,-0.7633587786259542,0.47884033203125,0.105344873046875,9.13627353515625,25.377058823529413
2025-10-20T13:55:38.681782,-0.8625954198473282,-1.7786259541984732,-0.7251908396946565,0.6009446166992187,0.20350714111328125,9.0788126953125,25.471176470588237
2025-10-20T13:55:38.698687,-1.5954198473282444,-2.0381679389312977,-0.6564885496183206,0.5267243652343749,0.1149216796875,8.997409838867187,25.424117647058825
2025-10-20T13:55:38.715596,-2.145038167938931,-2.2519083969465647,-0.6030534351145038,0.5291185668945312,0.28490999755859375,9.119514123535156,25.51823529411765
2025-10-20T13:55:38.732436,-2.732824427480916,-2.50381679389313,-0.44274809160305345,0.5315127685546874,0.11013327636718749,8.889670764160156,25.51823529411765
2025-10-20T13:55:38.749270,-3.183206106870229,-2.572519083969466,-0.6335877862595419,0.4908113403320312,0.11013327636718749,8.908824377441405,25.51823529411765
2025-10-20T13:55:38.766124,-3.5419847328244276,-2.7709923664122136,-0.4961832061068702,0.469263525390625,0.12689268798828124,9.095572106933593,25.330000000000002
2025-10-20T13:55:38.782949,-4.00763358778626,-3.122137404580153,-0.44274809160305345,0.6105214233398437,0.08140285644531249,9.107543115234375,25.424117647058825
2025-10-20T13:55:38.799753,-4.442748091603053,-2.9923664122137406,-0.4961832061068702,0.4908113403320312,0.15083470458984374,9.093177905273437,25.424117647058825
2025-10-20T13:55:38.816611,-4.8320610687022905,-3.053435114503817,-0.32061068702290074,0.4836287353515625,0.1388636962890625,9.157821350097656,25.424117647058825
2025-10-20T13:55:38.833461,-5.221374045801527,-3.045801526717557,-0.3816793893129771,0.5315127685546874,0.105344873046875,9.074024291992187,25.424117647058825
2025-10-20T13:55:38.850310,-5.480916030534351,-3.053435114503817,-0.3053435114503817,0.51714755859375,0.12210428466796874,9.217676391601563,25.51823529411765
2025-10-20T13:55:38.867167,-5.702290076335878,-3.1068702290076335,-0.24427480916030533,0.5793968017578125,0.08379705810546874,9.042899670410156,25.424117647058825
2025-10-20T13:55:38.884024,-5.908396946564886,-2.8702290076335877,-0.40458015267175573,0.5434837768554687,0.10773907470703124,9.205705383300781,25.51823529411765
2025-10-20T13:55:38.900871,-6.114503816793893,-2.9770992366412212,-0.183206106870229,0.5410895751953124,0.08140285644531249,9.255983618164063,25.471176470588237
2025-10-20T13:55:38.917746,-6.213740458015267,-2.801526717557252,-0.2595419847328244,0.5746083984375,0.10295067138671875,9.246406811523437,25.471176470588237
2025-10-20T13:55:38.934722,-6.213740458015267,-2.3893129770992365,-0.1984732824427481,0.5578489868164063,0.11013327636718749,9.296685046386719,25.330000000000002
2025-10-20T13:55:38.951608,-6.305343511450381,-2.282442748091603,-0.5114503816793893,0.5123591552734374,0.09816226806640624,9.303867651367186,25.330000000000002
2025-10-20T13:55:38.968470,-6.305343511450381,-1.9312977099236641,-0.16030534351145037,0.5817910034179687,0.11013327636718749,9.239224206542968,25.51823529411765
2025-10-20T13:55:38.985328,-6.152671755725191,-1.5648854961832062,-0.45038167938931295,0.5339069702148437,0.040701428222656245,9.3852705078125,25.377058823529413
2025-10-20T13:55:39.002189,-6.1603053435114505,-1.2900763358778626,-0.3893129770992366,0.5913678100585937,0.0526724365234375,9.478644372558593,25.471176470588237
2025-10-20T13:55:39.019084,-5.908396946564886,-0.8854961832061069,-0.4580152671755725,0.6392518432617187,0.009576806640625,9.5001921875,25.471176470588237
2025-10-20T13:55:39.035940,-5.7251908396946565,-0.5343511450381679,-0.5267175572519084,0.5410895751953124,0.009576806640625,9.382876306152344,25.377058823529413
2025-10-20T13:55:39.052783,-5.541984732824427,-0.13740458015267176,-0.5343511450381679,0.5267243652343749,0.040701428222656245,9.512163195800781,25.471176470588237
2025-10-20T13:55:39.069625,-5.206106870229007,0.42748091603053434,-0.7099236641221374,0.5410895751953124,0.03591302490234375,9.627084875488281,25.56529411764706
2025-10-20T13:55:39.086473,-4.908396946564886,0.7251908396946565,-0.6335877862595419,0.5602431884765625,0.011971008300781249,9.624690673828125,25.424117647058825
2025-10-20T13:55:39.103312,-4.137404580152672,1.2748091603053435,-0.816793893129771,0.5674257934570313,0.016759411621093748,9.574412438964844,25.424117647058825
2025-10-20T13:55:39.120197,-4.022900763358779,1.5572519083969465,-0.916030534351145,0.6009446166992187,0.05027823486328125,9.598354455566406,25.424117647058825
2025-10-20T13:55:39.137051,-3.3435114503816794,1.9770992366412214,-0.9847328244274809,0.5889736083984375,-0.05027823486328125,9.629479077148437,25.424117647058825
2025-10-20T13:55:39.153911,-2.9083969465648853,2.4122137404580153,-0.9694656488549618,0.5506663818359374,-0.011971008300781249,9.524134204101562,25.51823529411765
2025-10-20T13:55:39.170774,-2.3435114503816794,2.687022900763359,-1.1450381679389312,0.5698199951171875,0.00718260498046875,9.6151138671875,25.424117647058825
2025-10-20T13:55:39.187618,-1.8015267175572518,2.9160305343511452,-1.3969465648854962,0.51714755859375,0.02633621826171875,9.576806640625,25.424117647058825
2025-10-20T13:55:39.204470,-1.2366412213740459,3.404580152671756,-1.2900763358778626,0.5123591552734374,-0.02154781494140625,9.550470422363281,25.377058823529413
2025-10-20T13:55:39.221325,-0.6335877862595419,3.5877862595419847,-1.381679389312977,0.5267243652343749,0.023942016601562498,9.588777648925781,25.471176470588237
2025-10-20T13:55:39.238183,-0.20610687022900764,3.8702290076335877,-1.534351145038168,0.5363011718749999,-0.0383072265625,9.591171850585937,25.471176470588237
2025-10-20T13:55:39.255193,0.33587786259541985,4.099236641221374,-1.3740458015267176,0.5578489868164063,-0.016759411621093748,9.5384994140625,25.424117647058825
2025-10-20T13:55:39.272120,0.7938931297709924,4.083969465648855,-1.4732824427480915,0.5506663818359374,-0.10773907470703124,9.428366137695312,25.377058823529413
2025-10-20T13:55:39.289049,1.3053435114503817,4.229007633587786,-1.5190839694656488,0.5291185668945312,-0.0143652099609375,9.5384994140625,25.424117647058825
2025-10-20T13:55:39.305916,1.5954198473282444,4.251908396946565,-1.4198473282442747,0.5147533569335937,-0.01915361328125,9.397241516113281,25.424117647058825
2025-10-20T13:55:39.322799,1.9312977099236641,4.206106870229007,-1.5038167938931297,0.5698199951171875,-0.023942016601562498,9.45470235595703,25.424117647058825
2025-10-20T13:55:39.339641,2.16793893129771,4.1679389312977095,-1.4122137404580153,0.584185205078125,-0.009576806640625,9.409212524414063,25.424117647058825
2025-10-20T13:55:39.356489,2.198473282442748,4.145038167938932,-1.4427480916030535,0.5363011718749999,-0.062249243164062495,9.387664709472656,25.424117647058825
2025-10-20T13:55:39.373328,2.49618320610687,4.091603053435114,-1.549618320610687,0.49320554199218747,0.15083470458984374,9.222464794921875,25.51823529411765
2025-10-20T13:55:39.390163,2.4885496183206106,3.9770992366412212,-1.4427480916030535,0.5147533569335937,0.02633621826171875,9.320627062988281,25.330000000000002
2025-10-20T13:55:39.406999,2.5419847328244276,3.5877862595419847,-1.549618320610687,0.507570751953125,0.05027823486328125,9.34696328125,25.424117647058825
2025-10-20T13:55:39.423854,2.2519083969465647,3.2213740458015265,-1.2900763358778626,0.5027823486328125,0.055066638183593745,9.296685046386719,25.51823529411765
2025-10-20T13:55:39.440705,2.3740458015267176,2.8473282442748094,-1.2442748091603053,0.5243301635742187,0.08858546142578125,9.251195214843749,25.424117647058825
2025-10-20T13:55:39.457555,2.0381679389312977,2.4580152671755724,-1.1145038167938932,0.47644613037109373,-0.12210428466796874,9.057264880371093,25.424117647058825
2025-10-20T13:55:39.474398,2.0763358778625953,2.1297709923664123,-0.9312977099236641,0.47165772705078124,0.0718260498046875,9.076418493652342,25.424117647058825
2025-10-20T13:55:39.491427,1.8778625954198473,1.5954198473282444,-0.7099236641221374,0.4860229370117187,0.05027823486328125,9.054870678710937,25.424117647058825
2025-10-20T13:55:39.508378,1.5267175572519085,1.2748091603053435,-0.8244274809160306,0.45968671875,0.0383072265625,9.234435803222656,25.377058823529413
2025-10-20T13:55:39.525246,1.5725190839694656,0.6870229007633588,-0.6259541984732825,0.5195417602539062,0.09337386474609374,9.054870678710937,25.56529411764706
2025-10-20T13:55:39.542210,1.3511450381679388,0.2824427480916031,-0.4198473282442748,0.45489831542968745,0.1149216796875,9.066841687011719,25.424117647058825
2025-10-20T13:55:39.559073,1.2595419847328244,-0.0916030534351145,-0.3053435114503817,0.48123453369140623,0.06703764648437499,8.997409838867187,25.424117647058825
2025-10-20T13:55:39.575990,0.9923664122137404,-0.5038167938931297,-0.32061068702290074,0.4740519287109375,0.09337386474609374,8.961496813964843,25.56529411764706
2025-10-20T13:55:39.592852,0.8778625954198473,-0.8778625954198473,-0.22900763358778625,0.49320554199218747,0.0430956298828125,9.03332286376953,25.377058823529413
2025-10-20T13:55:39.609912,0.6717557251908397,-1.5038167938931297,-0.15267175572519084,0.46686932373046874,0.06943184814453125,9.100360510253905,25.471176470588237
2025-10-20T13:55:39.628186,0.44274809160305345,-1.7328244274809161,-0.2748091603053435,0.4860229370117187,0.09337386474609374,8.985438830566405,25.424117647058825
2025-10-20T13:55:39.645098,0.1984732824427481,-2.1374045801526718,-0.04580152671755725,0.47165772705078124,0.033518823242187495,9.05965908203125,25.377058823529413
2025-10-20T13:55:39.661952,0.0916030534351145,-2.519083969465649,-0.09923664122137404,0.4477157104492187,0.11731588134765625,8.99501563720703,25.471176470588237
2025-10-20T13:55:39.678787,-0.07633587786259542,-2.7709923664122136,-0.21374045801526717,0.4644751220703125,0.09816226806640624,8.93755479736328,25.377058823529413
2025-10-20T13:55:39.695620,-0.46564885496183206,-3.045801526717557,0.04580152671755725,0.5363011718749999,0.12210428466796874,8.93755479736328,25.377058823529413
2025-10-20T13:55:39.712471,-0.8320610687022901,-3.3435114503816794,-1.9541984732824427,0.49320554199218747,0.062249243164062495,8.954314208984375,25.471176470588237
2025-10-20T13:55:39.729331,-1.2213740458015268,-3.1297709923664123,1.9465648854961832,0.5099649536132812,0.11013327636718749,9.054870678710937,25.377058823529413
2025-10-20T13:55:39.746187,-1.7557251908396947,-3.480916030534351,0.16793893129770993,0.5243301635742187,0.13407529296874998,9.129090930175781,25.471176470588237
2025-10-20T13:55:39.763025,-2.183206106870229,-3.6412213740458017,0.17557251908396945,0.5123591552734374,0.105344873046875,9.184157568359375,25.471176470588237
2025-10-20T13:55:39.779875,-2.7022900763358777,-3.4732824427480917,0.030534351145038167,0.5434837768554687,0.1292868896484375,9.342174877929686,25.28294117647059
2025-10-20T13:55:39.797782,-3.145038167938931,-3.5343511450381677,0.13740458015267176,0.5482721801757812,0.08858546142578125,9.272743029785156,25.424117647058825
2025-10-20T13:55:39.814648,-2.0,-3.2900763358778624,0.2748091603053435,0.49799394531249996,0.10773907470703124,9.275137231445312,25.424117647058825
2025-10-20T13:55:39.831515,-4.198473282442748,-3.1908396946564888,0.26717557251908397,0.5889736083984375,0.1388636962890625,9.287108239746093,25.51823529411765
2025-10-20T13:55:39.848422,-4.793893129770993,-3.030534351145038,0.2824427480916031,0.5530605834960938,0.12449848632812499,9.272743029785156,25.377058823529413
2025-10-20T13:55:39.865295,-5.412213740458015,-2.7557251908396947,0.44274809160305345,0.5410895751953124,0.143652099609375,9.428366137695312,25.377058823529413
2025-10-20T13:55:39.882172,-5.770992366412214,-2.427480916030534,0.3893129770992366,0.5961562133789062,0.1484405029296875,9.375693701171874,25.471176470588237
2025-10-20T13:55:39.900001,-6.061068702290076,-2.1297709923664123,0.11450381679389313,0.5985504150390625,0.16998831787109375,9.334992272949219,25.377058823529413
2025-10-20T13:55:39.919614,-6.32824427480916,-1.7099236641221374,0.1450381679389313,0.565031591796875,0.2705447875976562,9.437942944335937,25.424117647058825
2025-10-20T13:55:39.939033,-6.938931297709924,-1.1908396946564885,-1.9541984732824427,0.7517793212890624,0.105344873046875,9.425971936035156,25.471176470588237
2025-10-20T13:55:39.956629,-6.870229007633588,-0.7480916030534351,-0.11450381679389313,0.5865794067382812,0.1149216796875,9.526528405761718,25.471176470588237
2025-10-20T13:55:39.973584,-6.748091603053435,-0.3282442748091603,1.916030534351145,0.6057330200195312,0.0526724365234375,9.507374792480467,25.51823529411765
2025-10-20T13:55:39.990407,-6.641221374045801,0.05343511450381679,-0.08396946564885496,0.59376201171875,0.06943184814453125,9.555258825683593,25.424117647058825
2025-10-20T13:55:40.008306,-6.816793893129771,0.48091603053435117,-1.9236641221374047,0.584185205078125,0.040701428222656245,9.600748657226562,25.424117647058825
2025-10-20T13:55:40.025136,-6.633587786259542,1.0381679389312977,-0.07633587786259542,0.5027823486328125,0.040701428222656245,9.428366137695312,25.51823529411765
2025-10-20T13:55:40.041963,-6.038167938931298,1.297709923664122,-0.11450381679389313,0.5746083984375,0.086191259765625,9.543287817382812,25.424117647058825
2025-10-20T13:55:40.058842,-5.793893129770993,1.6793893129770991,-0.3053435114503817,0.6153098266601562,-0.12210428466796874,9.481038574218749,25.51823529411765
2025-10-20T13:55:40.075648,-5.435114503816794,2.1908396946564888,-0.2900763358778626,0.59376201171875,-0.09576806640624999,9.526528405761718,25.424117647058825
2025-10-20T13:55:40.092419,-4.893129770992366,2.4580152671755724,-0.4961832061068702,0.5315127685546874,-0.03591302490234375,9.576806640625,25.377058823529413
2025-10-20T13:55:40.109199,-4.351145038167939,2.5267175572519083,-0.5877862595419847,0.5291185668945312,-0.12210428466796874,9.586383447265625,25.471176470588237
2025-10-20T13:55:40.125976,-3.6946564885496183,2.984732824427481,-0.5725190839694656,0.6105214233398437,0.009576806640625,9.490615380859374,25.424117647058825
2025-10-20T13:55:40.142752,-3.1374045801526718,3.3435114503816794,-0.6793893129770993,0.5363011718749999,-0.009576806640625,9.466673364257812,25.424117647058825
2025-10-20T13:55:40.159525,-2.7251908396946565,3.404580152671756,-0.5954198473282443,0.5219359619140624,-0.02633621826171875,9.476250170898437,25.471176470588237
2025-10-20T13:55:40.176299,-2.0229007633587788,3.5419847328244276,-0.8625954198473282,0.5458779785156249,0.047884033203124995,9.581595043945311,25.56529411764706
2025-10-20T13:55:40.193074,-1.2671755725190839,3.6946564885496183,-0.7251908396946565,0.59376201171875,-0.023942016601562498,9.526528405761718,25.424117647058825
2025-10-20T13:55:40.209847,-0.6183206106870229,3.6030534351145036,-0.7404580152671756,0.5530605834960938,-0.023942016601562498,9.423577734375,25.424117647058825
2025-10-20T13:55:40.226620,-0.4198473282442748,3.366412213740458,-0.9312977099236641,0.5698199951171875,-0.04548983154296875,9.449913952636718,25.377058823529413
2025-10-20T13:55:40.243480,0.22137404580152673,3.3893129770992365,-0.9694656488549618,0.51714755859375,-0.016759411621093748,9.437942944335937,25.471176470588237
2025-10-20T13:55:40.260260,0.8396946564885496,3.267175572519084,-1.0916030534351144,0.5027823486328125,-0.04548983154296875,9.356540087890625,25.471176470588237
2025-10-20T13:55:40.277032,1.1755725190839694,3.145038167938931,-1.1755725190839694,0.5267243652343749,0.00239420166015625,9.478644372558593,25.51823529411765
2025-10-20T13:55:40.293823,1.4274809160305344,2.8396946564885495,-1.0687022900763359,0.46208092041015625,-0.12449848632812499,9.227253198242186,25.424117647058825
2025-10-20T13:55:40.311230,1.7328244274809161,2.7099236641221376,-0.9465648854961832,0.4908113403320312,0.023942016601562498,9.287108239746093,25.424117647058825
2025-10-20T13:55:40.328034,1.8473282442748091,2.2442748091603053,-1.015267175572519,0.488417138671875,0.06703764648437499,9.375693701171874,25.424117647058825
2025-10-20T13:55:40.344860,1.9083969465648856,2.0229007633587788,-0.9847328244274809,0.5123591552734374,0.02633621826171875,9.272743029785156,25.424117647058825
2025-10-20T13:55:40.361695,0.022900763358778626,1.6717557251908397,-0.8015267175572519,0.4955997436523437,0.01915361328125,9.318232861328125,25.377058823529413
2025-10-20T13:55:40.378494,1.8396946564885497,1.1603053435114503,-0.7557251908396947,0.5315127685546874,0.0430956298828125,9.294290844726563,25.56529411764706
2025-10-20T13:55:40.395281,3.8473282442748094,1.015267175572519,-0.8778625954198473,0.4525041137695312,0.11013327636718749,9.361328491210937,25.377058823529413
2025-10-20T13:55:40.412121,1.8549618320610688,0.44274809160305345,-0.6793893129770993,0.4740519287109375,0.05027823486328125,9.22485899658203,25.377058823529413
2025-10-20T13:55:40.428913,1.9083969465648856,0.13740458015267176,-0.5343511450381679,0.46208092041015625,0.06464344482421874,9.241618408203124,25.471176470588237
2025-10-20T13:55:40.445766,1.5572519083969465,-0.2748091603053435,-0.45038167938931295,0.46208092041015625,0.009576806640625,9.14824454345703,25.471176470588237
2025-10-20T13:55:40.462574,1.6793893129770991,-0.6870229007633588,-0.5343511450381679,0.45489831542968745,0.08140285644531249,9.14824454345703,25.424117647058825
2025-10-20T13:55:40.479365,1.5725190839694656,-1.1221374045801527,-0.3282442748091603,0.4525041137695312,0.09337386474609374,9.157821350097656,25.51823529411765
2025-10-20T13:55:40.496149,1.618320610687023,-1.4885496183206106,-0.31297709923664124,0.4644751220703125,0.009576806640625,9.10993731689453,25.51823529411765
2025-10-20T13:55:40.512932,1.4732824427480915,-1.9389312977099236,-0.31297709923664124,0.5267243652343749,0.0143652099609375,9.157821350097656,25.377058823529413
2025-10-20T13:55:40.529707,1.618320610687023,-2.450381679389313,-0.20610687022900764,0.5027823486328125,0.033518823242187495,9.157821350097656,25.377058823529413
2025-10-20T13:55:40.546483,1.7786259541984732,-2.4732824427480917,-0.22900763358778625,0.49320554199218747,-0.12689268798828124,9.07163009033203,25.51823529411765
2025-10-20T13:55:40.563256,1.748091603053435,-2.8931297709923665,-0.15267175572519084,0.49799394531249996,0.09337386474609374,9.3086560546875,25.56529411764706
2025-10-20T13:55:40.580030,1.6870229007633588,-3.198473282442748,-0.09923664122137404,0.5410895751953124,0.055066638183593745,9.05965908203125,25.471176470588237
2025-10-20T13:55:40.596804,1.3893129770992367,-3.6946564885496183,-0.03816793893129771,0.5051765502929687,0.05985504150390625,9.131485131835937,25.424117647058825
2025-10-20T13:55:40.613578,1.4351145038167938,-3.7786259541984735,-0.15267175572519084,0.5315127685546874,0.1292868896484375,9.191340173339842,25.51823529411765
2025-10-20T13:55:40.630352,1.3511450381679388,-3.854961832061069,-0.05343511450381679,0.5243301635742187,0.055066638183593745,9.167398156738281,25.471176470588237
2025-10-20T13:55:40.647164,1.1908396946564885,-4.061068702290076,-1.9541984732824427,0.5793968017578125,0.08140285644531249,9.162609753417968,25.377058823529413
2025-10-20T13:55:40.663966,0.8473282442748091,-3.969465648854962,-0.07633587786259542,0.5363011718749999,0.105344873046875,9.169792358398437,25.471176470588237
2025-10-20T13:55:40.680740,0.5267175572519084,-4.206106870229007,0.09923664122137404,0.5506663818359374,0.06703764648437499,9.234435803222656,25.424117647058825
2025-10-20T13:55:40.697511,-0.10687022900763359,-4.00763358778626,0.09923664122137404,0.5482721801757812,0.0718260498046875,9.10993731689453,25.471176470588237
2025-10-20T13:55:40.714322,-0.6641221374045801,-3.7099236641221376,0.10687022900763359,0.5386953735351562,0.17238251953125,9.191340173339842,25.377058823529413
2025-10-20T13:55:40.731117,-1.3206106870229009,-3.618320610687023,-1.9541984732824427,0.55545478515625,0.13407529296874998,9.306261853027344,25.471176470588237
2025-10-20T13:55:40.747892,-1.9389312977099236,-3.3893129770992365,0.22900763358778625,0.5003881469726562,0.19632453613281248,9.291896643066405,25.424117647058825
2025-10-20T13:55:40.764664,-2.8244274809160306,-3.183206106870229,0.0,0.5458779785156249,0.1292868896484375,9.323021264648437,25.424117647058825
2025-10-20T13:55:40.781452,-3.519083969465649,-2.8625954198473282,-1.916030534351145,0.6344634399414062,0.17238251953125,9.234435803222656,25.424117647058825
2025-10-20T13:55:40.798236,-4.442748091603053,-2.427480916030534,0.20610687022900764,0.584185205078125,0.2154781494140625,9.277531433105468,25.377058823529413
2025-10-20T13:55:40.815011,-5.221374045801527,-1.7938931297709924,0.1297709923664122,0.5793968017578125,0.22266075439453123,9.394847314453125,25.471176470588237
2025-10-20T13:55:40.831785,-5.9541984732824424,-1.3969465648854962,0.2748091603053435,0.5889736083984375,0.17956512451171874,9.258377819824219,25.424117647058825
2025-10-20T13:55:40.848555,-6.709923664122138,-0.8015267175572519,0.22137404580152673,0.6584054565429687,0.16280571289062498,9.399635717773437,25.330000000000002
2025-10-20T13:55:40.865328,-7.526717557251908,-0.5572519083969466,0.22137404580152673,0.612915625,0.2154781494140625,9.402029919433593,25.377058823529413
2025-10-20T13:55:40.882097,-8.038167938931299,1.9465648854961832,0.3511450381679389,0.6009446166992187,0.26815058593749996,9.34696328125,25.377058823529413
2025-10-20T13:55:40.898929,-8.32824427480916,0.6564885496183206,0.13740458015267176,0.5458779785156249,0.16998831787109375,9.373299499511718,25.471176470588237
2025-10-20T13:55:40.915755,-8.541984732824428,1.2061068702290076,0.12213740458015267,0.7110778930664062,0.12449848632812499,9.478644372558593,25.377058823529413
2025-10-20T13:55:40.932558,-8.961832061068701,1.6106870229007633,0.11450381679389313,0.5985504150390625,0.0909796630859375,9.483432775878907,25.424117647058825
2025-10-20T13:55:40.949336,-9.022900763358779,1.9236641221374047,0.1984732824427481,0.6009446166992187,0.08379705810546874,9.497797985839844,25.424117647058825
2025-10-20T13:55:40.966111,-8.854961832061068,2.4656488549618323,-0.061068702290076333,0.5195417602539062,0.12210428466796874,9.404424121093749,25.51823529411765
2025-10-20T13:55:40.982886,-8.625954198473282,2.9923664122137406,-0.030534351145038167,0.612915625,0.10295067138671875,9.390058911132812,25.377058823529413
2025-10-20T13:55:40.999659,-8.335877862595419,3.213740458015267,-0.15267175572519084,0.5913678100585937,0.0718260498046875,9.445125549316407,25.377058823529413
2025-10-20T13:55:41.016431,-7.870229007633588,3.5877862595419847,-0.25190839694656486,0.5195417602539062,0.0,9.414000927734374,25.424117647058825
2025-10-20T13:55:41.033207,-7.183206106870229,3.7251908396946565,-0.19083969465648856,0.5698199951171875,-0.033518823242187495,9.320627062988281,25.471176470588237
2025-10-20T13:55:41.049981,-6.297709923664122,4.122137404580153,-0.2824427480916031,0.5961562133789062,-0.00239420166015625,9.380482104492186,25.471176470588237
2025-10-20T13:55:41.066754,-5.580152671755725,4.190839694656488,-0.33587786259541985,0.5674257934570313,-0.04548983154296875,9.337386474609374,25.471176470588237
2025-10-20T13:55:41.083529,-4.8396946564885495,4.267175572519084,-0.44274809160305345,0.5458779785156249,-0.10295067138671875,9.342174877929686,25.51823529411765
2025-10-20T13:55:41.100301,-5.8320610687022905,4.259541984732825,-0.3435114503816794,0.5027823486328125,-0.03591302490234375,9.425971936035156,25.51823529411765
2025-10-20T13:55:41.117076,-3.0610687022900764,4.366412213740458,-0.6259541984732825,0.5243301635742187,-0.028730419921875,9.351751684570312,25.377058823529413
2025-10-20T13:55:41.133860,-2.030534351145038,4.3893129770992365,-0.7633587786259542,0.4860229370117187,-0.076614453125,9.430760339355468,25.377058823529413
2025-10-20T13:55:41.150650,-1.1603053435114503,4.450381679389313,-0.816793893129771,0.45489831542968745,-0.08379705810546874,9.423577734375,25.51823529411765
2025-10-20T13:55:41.167430,-0.2824427480916031,4.099236641221374,-0.9541984732824428,0.565031591796875,-0.12689268798828124,9.3852705078125,25.424117647058825
2025-10-20T13:55:41.184247,0.7480916030534351,4.022900763358779,-1.015267175572519,0.44053310546874996,-0.086191259765625,9.469067565917967,25.424117647058825
2025-10-20T13:55:41.201097,1.282442748091603,1.9694656488549618,-1.1297709923664123,0.5147533569335937,-0.076614453125,9.272743029785156,25.51823529411765
2025-10-20T13:55:41.217884,2.2061068702290076,3.7022900763358777,-1.1984732824427482,0.507570751953125,-0.15083470458984374,9.368511096191405,25.51823529411765
2025-10-20T13:55:41.234728,2.5114503816793894,3.2213740458015265,-1.3358778625954197,0.4333505004882812,-0.08379705810546874,9.435548742675781,25.424117647058825
2025-10-20T13:55:41.251525,3.1603053435114505,2.8625954198473282,-1.3740458015267176,0.44532150878906246,-0.0909796630859375,9.483432775878907,25.471176470588237
2025-10-20T13:55:41.269008,3.7022900763358777,2.7022900763358777,-1.3206106870229009,0.5243301635742187,-0.05985504150390625,9.289502441406249,25.424117647058825
2025-10-20T13:55:41.285804,2.0610687022900764,2.2061068702290076,-1.3587786259541985,0.46686932373046874,0.00239420166015625,9.41639512939453,25.424117647058825
2025-10-20T13:55:41.302579,4.030534351145038,1.9389312977099236,-1.4045801526717556,0.4285620971679687,0.0383072265625,9.342174877929686,25.377058823529413
2025-10-20T13:55:41.319358,4.091603053435114,1.6259541984732824,-1.3893129770992367,0.5482721801757812,0.016759411621093748,9.220070593261719,25.471176470588237
2025-10-20T13:55:41.336135,4.015267175572519,1.1450381679389312,-1.1526717557251909,0.5363011718749999,-0.011971008300781249,9.390058911132812,25.377058823529413
2025-10-20T13:55:41.352913,4.0458015267175576,0.7938931297709924,-1.099236641221374,0.5865794067382812,0.0,9.332598071289063,25.424117647058825
2025-10-20T13:55:41.369687,3.6717557251908395,0.2366412213740458,-1.0916030534351144,0.4836287353515625,0.10295067138671875,9.272743029785156,25.51823529411765
2025-10-20T13:55:41.386462,3.2595419847328246,-0.09923664122137404,-0.9083969465648855,0.5051765502929687,0.0526724365234375,9.282319836425781,25.471176470588237
2025-10-20T13:55:41.403238,3.0763358778625953,-0.5572519083969466,-0.9312977099236641,0.5003881469726562,0.07422025146484375,9.279925634765624,25.471176470588237
2025-10-20T13:55:41.420013,2.519083969465649,-0.9236641221374046,-0.7709923664122137,0.5315127685546874,0.11731588134765625,9.22485899658203,25.424117647058825
2025-10-20T13:55:41.436788,2.0610687022900764,-1.1603053435114503,-0.9312977099236641,0.5506663818359374,0.10295067138671875,9.251195214843749,25.51823529411765
2025-10-20T13:55:41.453561,1.6030534351145038,-1.4885496183206106,-0.648854961832061,0.488417138671875,0.055066638183593745,9.342174877929686,25.424117647058825
2025-10-20T13:55:41.470334,0.8778625954198473,-1.8702290076335877,-0.5801526717557252,0.5195417602539062,0.12210428466796874,9.315838659667968,25.471176470588237
2025-10-20T13:55:41.487106,0.7022900763358778,-1.9923664122137406,-0.45038167938931295,0.4740519287109375,0.13407529296874998,9.205705383300781,25.471176470588237
2025-10-20T13:55:41.503878,-0.05343511450381679,-2.3282442748091605,-0.2748091603053435,0.4644751220703125,0.11013327636718749,9.315838659667968,25.424117647058825
2025-10-20T13:55:41.520822,-0.26717557251908397,-2.4732824427480917,-0.22137404580152673,0.4572925170898437,0.14604630126953125,9.229647399902344,25.471176470588237
2025-10-20T13:55:41.537619,-0.8549618320610687,-2.6564885496183206,-0.21374045801526717,0.46208092041015625,0.0,9.289502441406249,25.471176470588237
2025-10-20T13:55:41.554397,-1.16793893129771,-2.717557251908397,-0.24427480916030533,0.4644751220703125,0.16280571289062498,9.208099584960937,25.51823529411765
2025-10-20T13:55:41.571175,-1.6412213740458015,-2.9618320610687023,1.9236641221374047,0.5123591552734374,0.08379705810546874,9.169792358398437,25.51823529411765
2025-10-20T13:55:41.587949,-2.1603053435114505,-2.8473282442748094,0.04580152671755725,0.46686932373046874,0.016759411621093748,9.244012609863281,25.377058823529413
2025-10-20T13:55:41.604725,-2.6412213740458017,-2.801526717557252,0.0916030534351145,0.5003881469726562,0.13646949462890623,9.227253198242186,25.471176470588237
2025-10-20T13:55:41.621501,-3.0763358778625953,-2.8396946564885495,0.03816793893129771,0.4955997436523437,0.076614453125,9.227253198242186,25.471176470588237
2025-10-20T13:55:41.638275,-3.564885496183206,-2.8702290076335877,0.19083969465648856,0.5195417602539062,0.062249243164062495,9.289502441406249,25.51823529411765
2025-10-20T13:55:41.655049,-3.816793893129771,-2.732824427480916,0.21374045801526717,0.5027823486328125,0.06943184814453125,9.141061938476563,25.471176470588237
2025-10-20T13:55:41.671823,-4.221374045801527,-2.6564885496183206,0.2595419847328244,0.5315127685546874,0.09337386474609374,9.181763366699219,25.471176470588237
2025-10-20T13:55:41.688597,-4.541984732824427,-2.4427480916030535,0.16793893129770993,0.5674257934570313,0.0718260498046875,9.203311181640624,25.471176470588237
2025-10-20T13:55:41.705371,-4.877862595419847,-2.2900763358778624,0.1297709923664122,0.5243301635742187,0.09576806640624999,9.246406811523437,25.51823529411765
2025-10-20T13:55:41.722148,-4.961832061068702,-2.099236641221374,0.1450381679389313,0.469263525390625,0.10295067138671875,9.241618408203124,25.424117647058825
2025-10-20T13:55:41.738924,-5.175572519083969,-1.8244274809160306,0.1450381679389313,0.5770026000976562,0.11013327636718749,9.325415466308593,25.471176470588237
2025-10-20T13:55:41.755695,-5.465648854961832,-1.5190839694656488,0.16793893129770993,0.5410895751953124,0.105344873046875,9.191340173339842,25.471176470588237
2025-10-20T13:55:41.772551,-5.572519083969466,-1.1603053435114503,0.1450381679389313,0.5793968017578125,0.0430956298828125,9.119514123535156,25.471176470588237
2025-10-20T13:55:41.789366,-5.717557251908397,-0.7480916030534351,0.03816793893129771,0.55545478515625,0.1771709228515625,9.323021264648437,25.471176470588237
2025-10-20T13:55:41.806148,-5.67175572519084,-0.6717557251908397,-0.03816793893129771,0.5674257934570313,0.09576806640624999,9.344569079589844,25.471176470588237
2025-10-20T13:55:41.822933,-5.656488549618321,-0.19083969465648856,-0.24427480916030533,0.55545478515625,0.05027823486328125,9.457096557617186,25.424117647058825
2025-10-20T13:55:41.839711,-5.526717557251908,0.22137404580152673,-0.06870229007633588,0.5674257934570313,0.08140285644531249,9.22485899658203,25.330000000000002
2025-10-20T13:55:41.856486,-5.412213740458015,0.4122137404580153,-0.3053435114503817,0.5674257934570313,0.08379705810546874,9.313444458007812,25.471176470588237
2025-10-20T13:55:41.873262,-5.2748091603053435,0.7099236641221374,-0.16030534351145037,0.5291185668945312,0.0047884033203125,9.315838659667968,25.471176470588237
2025-10-20T13:55:41.890037,-4.984732824427481,1.0916030534351144,-0.29770992366412213,0.584185205078125,0.055066638183593745,9.344569079589844,25.424117647058825
2025-10-20T13:55:41.906807,-4.587786259541985,1.282442748091603,-0.4580152671755725,0.5793968017578125,0.15083470458984374,9.361328491210937,25.424117647058825
2025-10-20T13:55:41.923620,-4.404580152671755,1.6717557251908397,-0.5114503816793893,0.5674257934570313,0.031124621582031248,9.330203869628905,25.424117647058825
2025-10-20T13:55:41.945424,-4.106870229007634,1.900763358778626,-0.5038167938931297,0.5003881469726562,0.05027823486328125,9.380482104492186,25.424117647058825
2025-10-20T13:55:41.962255,-3.50381679389313,2.068702290076336,-0.6183206106870229,0.507570751953125,0.07900865478515624,9.351751684570312,25.424117647058825
2025-10-20T13:55:41.979057,-2.9923664122137406,2.1297709923664123,-0.6717557251908397,0.5626373901367188,-0.13168109130859373,9.428366137695312,25.56529411764706
2025-10-20T13:55:41.995830,-2.5343511450381677,2.351145038167939,-0.8931297709923665,0.5506663818359374,-0.1005564697265625,9.356540087890625,25.377058823529413
2025-10-20T13:55:42.012603,-1.9465648854961832,2.282442748091603,-0.7862595419847328,0.6296750366210937,-0.1149216796875,9.354145886230468,25.377058823529413
2025-10-20T13:55:42.029435,-1.7786259541984732,2.633587786259542,-0.9847328244274809,0.6009446166992187,-0.11252747802734374,9.282319836425781,25.471176470588237
2025-10-20T13:55:42.046281,-1.0534351145038168,2.7099236641221376,-1.0534351145038168,0.5626373901367188,-0.033518823242187495,9.332598071289063,25.377058823529413
2025-10-20T13:55:42.063078,-0.29770992366412213,2.312977099236641,-0.9770992366412213,0.5339069702148437,-0.023942016601562498,9.526528405761718,25.424117647058825
2025-10-20T13:55:42.079872,1.8778625954198473,2.1526717557251906,-0.7022900763358778,0.7206546997070312,0.20829554443359374,9.313444458007812,25.424117647058825
2025-10-20T13:55:42.096653,0.29770992366412213,2.8091603053435112,-0.9847328244274809,0.5626373901367188,0.10773907470703124,9.344569079589844,25.471176470588237
2025-10-20T13:55:42.113479,0.8549618320610687,1.984732824427481,-0.8778625954198473,0.8355763793945312,-0.1197100830078125,9.430760339355468,25.471176470588237
2025-10-20T13:55:42.130290,1.3129770992366412,2.213740458015267,-1.0534351145038168,0.12689268798828124,0.086191259765625,9.294290844726563,25.471176470588237
2025-10-20T13:55:42.147072,1.748091603053435,1.984732824427481,-1.0610687022900764,0.7733271362304687,-0.0526724365234375,9.445125549316407,25.471176470588237
2025-10-20T13:55:42.164000,1.702290076335878,1.5190839694656488,-0.9618320610687023,0.45010991210937495,0.1292868896484375,9.476250170898437,25.56529411764706
2025-10-20T13:55:42.180790,1.6488549618320612,1.7404580152671756,-0.8931297709923665,0.6153098266601562,0.22026655273437498,9.368511096191405,25.471176470588237
2025-10-20T13:55:42.197563,1.5725190839694656,1.534351145038168,-0.9007633587786259,0.36152445068359373,-0.1771709228515625,9.557653027343749,25.377058823529413
2025-10-20T13:55:42.214335,0.8473282442748091,1.3129770992366412,-0.8702290076335878,0.4836287353515625,0.033518823242187495,9.497797985839844,25.51823529411765
2025-10-20T13:55:42.231118,0.030534351145038167,1.7786259541984732,-0.7938931297709924,0.6296750366210937,0.33518823242187495,9.502586389160156,25.424117647058825
2025-10-20T13:55:42.247909,-1.4732824427480915,0.7786259541984732,-0.4198473282442748,0.6200982299804687,0.4070142822265625,9.76116016845703,25.51823529411765
2025-10-20T13:55:42.264688,-3.549618320610687,0.9312977099236641,0.1450381679389313,0.737414111328125,0.6392518432617187,9.528922607421874,25.471176470588237
2025-10-20T13:55:42.281460,-5.32824427480916,0.916030534351145,0.31297709923664124,0.1388636962890625,-0.07422025146484375,9.782707983398437,25.377058823529413
2025-10-20T13:55:42.298243,-6.67175572519084,1.1450381679389312,0.8244274809160306,0.5961562133789062,0.9600748657226562,9.126696728515624,25.51823529411765
2025-10-20T13:55:42.315020,-6.732824427480916,-0.3282442748091603,1.015267175572519,0.5770026000976562,0.047884033203124995,9.636661682128906,25.424117647058825
2025-10-20T13:55:42.331795,-8.687022900763358,0.6335877862595419,1.3893129770992367,-0.011971008300781249,0.30885201416015623,9.74200655517578,25.424117647058825
2025-10-20T13:55:42.348817,-10.709923664122137,1.183206106870229,1.6870229007633588,0.7158662963867187,-0.3447650390625,9.320627062988281,25.471176470588237
2025-10-20T13:55:42.365760,-11.50381679389313,0.48091603053435117,2.0,0.33039982910156246,0.35194764404296874,9.449913952636718,25.330000000000002
2025-10-20T13:55:42.382550,-9.854961832061068,0.7404580152671756,2.122137404580153,0.833182177734375,0.3902548706054687,9.04050546875,25.377058823529413
2025-10-20T13:55:42.399327,-13.557251908396946,-1.0687022900763359,2.4656488549618323,0.9576806640625,-0.4740519287109375,9.306261853027344,25.56529411764706
2025-10-20T13:55:42.416097,-12.16030534351145,-0.4122137404580153,2.6412213740458017,0.21068974609375,0.7589619262695312,9.172186560058593,25.424117647058825
2025-10-20T13:55:42.432873,-11.48091603053435,-0.9694656488549618,2.33587786259542,0.6440402465820312,-0.6272808349609375,9.495403784179686,25.51823529411765
2025-10-20T13:55:42.449648,-12.374045801526718,-0.8625954198473282,3.198473282442748,0.8762778076171874,0.39743747558593745,8.932766394042968,25.471176470588237
2025-10-20T13:55:42.466421,-12.366412213740459,-0.6717557251908397,3.114503816793893,0.35673604736328124,-0.5674257934570313,9.179369165039063,25.377058823529413
2025-10-20T13:55:42.483193,-12.725190839694656,-1.1374045801526718,3.366412213740458,0.5961562133789062,-0.5817910034179687,9.452308154296874,25.51823529411765
2025-10-20T13:55:42.499966,-13.114503816793894,-1.4809160305343512,3.282442748091603,0.5339069702148437,-0.21068974609375,8.8489693359375,25.424117647058825
2025-10-20T13:55:42.516741,-12.84732824427481,-0.9312977099236641,3.6030534351145036,0.49799394531249996,-0.023942016601562498,9.066841687011719,25.377058823529413
2025-10-20T13:55:42.533521,-11.83206106870229,-1.7099236641221374,3.3587786259541983,0.009576806640625,-0.2705447875976562,9.22485899658203,25.377058823529413
2025-10-20T13:55:42.550305,-12.17557251908397,-1.786259541984733,3.8473282442748094,0.6536170532226562,0.19632453613281248,8.997409838867187,25.51823529411765
2025-10-20T13:55:42.567089,-11.549618320610687,-1.5267175572519085,3.66412213740458,0.2561795776367187,-0.6177040283203125,9.205705383300781,25.56529411764706
2025-10-20T13:55:42.583869,-11.083969465648854,-1.618320610687023,3.717557251908397,0.4213794921875,-0.1005564697265625,9.014169250488282,25.471176470588237
2025-10-20T13:55:42.600646,-10.358778625954198,-1.748091603053435,3.4885496183206106,0.316034619140625,-0.622492431640625,8.927977990722656,25.56529411764706
2025-10-20T13:55:42.617426,-10.625954198473282,-1.3358778625954197,3.282442748091603,0.4477157104492187,-0.1149216796875,8.698134631347656,25.424117647058825
2025-10-20T13:55:42.634201,-9.465648854961833,-1.5038167938931297,3.2290076335877864,0.12210428466796874,-1.1516109985351561,9.222464794921875,25.424117647058825
2025-10-20T13:55:42.650977,-7.862595419847328,-2.236641221374046,3.381679389312977,0.105344873046875,0.46686932373046874,8.741230261230468,25.471176470588237
2025-10-20T13:55:42.667750,-7.572519083969466,-1.213740458015267,2.763358778625954,0.17956512451171874,-0.8355763793945312,8.896853369140624,25.471176470588237
2025-10-20T13:55:42.684523,-7.641221374045801,-0.09923664122137404,2.7251908396946565,0.4572925170898437,-0.3447650390625,9.22485899658203,25.424117647058825
2025-10-20T13:55:42.701297,-7.145038167938932,-1.618320610687023,2.633587786259542,0.5099649536132812,-0.9026140258789062,8.628702783203124,25.424117647058825
2025-10-20T13:55:42.718073,-6.931297709923665,-2.3435114503816794,2.33587786259542,0.814028564453125,0.1867477294921875,9.085995300292968,25.471176470588237
2025-10-20T13:55:42.734847,-5.648854961832061,-1.5725190839694656,2.50381679389313,0.45489831542968745,-0.5123591552734374,9.045293872070312,25.377058823529413
2025-10-20T13:55:42.751623,-5.244274809160306,-0.0916030534351145,2.236641221374046,0.4165910888671875,0.1771709228515625,8.731653454589843,25.424117647058825
2025-10-20T13:55:42.768397,-3.33587786259542,-1.702290076335878,2.0763358778625953,0.19153613281249998,-1.0558429321289062,9.586383447265625,25.51823529411765
2025-10-20T13:55:42.785173,-2.145038167938931,-1.717557251908397,2.2748091603053435,0.7613561279296874,-0.047884033203124995,9.081206896972656,25.471176470588237
2025-10-20T13:55:42.801945,-1.0534351145038168,-0.9083969465648855,2.015267175572519,0.43574470214843747,-0.689530078125,9.311050256347656,25.377058823529413
2025-10-20T13:55:42.818720,-0.33587786259541985,-1.4580152671755726,1.984732824427481,0.7733271362304687,-0.7685387329101562,9.047688073730468,25.51823529411765
2025-10-20T13:55:42.835489,0.1297709923664122,-0.4580152671755725,1.8015267175572518,0.40462008056640625,-0.45010991210937495,9.349357482910156,25.471176470588237
2025-10-20T13:55:42.852266,0.9770992366412213,-0.9847328244274809,1.8396946564885497,0.3112462158203125,-0.5722141967773438,9.200916979980468,25.377058823529413
2025-10-20T13:55:42.869080,1.183206106870229,-0.46564885496183206,1.748091603053435,0.507570751953125,-0.9337386474609375,9.466673364257812,25.471176470588237
2025-10-20T13:55:42.885868,1.2900763358778626,1.83206106870229,1.9389312977099236,0.7038952880859375,-0.1005564697265625,9.447519750976562,25.424117647058825
2025-10-20T13:55:42.902715,2.7938931297709924,0.4351145038167939,1.6717557251908397,0.4333505004882812,-0.41419688720703124,9.418789331054686,25.61235294117647
2025-10-20T13:55:42.919504,2.9618320610687023,0.3893129770992366,1.6259541984732824,0.4261678955078125,-0.7206546997070312,9.090783703613281,25.51823529411765
2025-10-20T13:55:42.936285,3.0916030534351147,1.0305343511450382,1.3969465648854962,0.9169792358398436,-0.9935936889648437,9.581595043945311,25.471176470588237
2025-10-20T13:55:42.953064,3.2442748091603053,0.9007633587786259,1.4961832061068703,0.36391865234375,0.1292868896484375,8.813056311035156,25.56529411764706
2025-10-20T13:55:42.971176,4.526717557251908,0.5801526717557252,1.1297709923664123,0.5363011718749999,-1.1276689819335937,9.129090930175781,25.56529411764706
2025-10-20T13:55:42.987985,4.5038167938931295,0.22137404580152673,1.1374045801526718,0.6057330200195312,-0.24899697265624998,10.026916552734374,25.471176470588237
2025-10-20T13:55:43.004763,4.977099236641221,1.1145038167938932,1.1908396946564885,0.507570751953125,-0.36152445068359373,8.932766394042968,25.51823529411765
2025-10-20T13:55:43.021542,5.702290076335878,1.2595419847328244,0.8549618320610687,0.40940848388671874,-1.16837041015625,9.739612353515625,25.51823529411765
2025-10-20T13:55:43.038322,5.183206106870229,1.3053435114503817,1.2213740458015268,0.7350199096679687,-0.1771709228515625,9.028534460449219,25.377058823529413
2025-10-20T13:55:43.055105,3.9770992366412212,1.2595419847328244,0.9312977099236641,0.6272808349609375,-0.9433154541015625,9.648632690429688,25.56529411764706
2025-10-20T13:55:43.071881,5.938931297709924,1.1984732824427482,0.8244274809160306,0.584185205078125,-0.10295067138671875,9.114725720214842,25.424117647058825
2025-10-20T13:55:43.088657,6.6106870229007635,0.31297709923664124,0.9618320610687023,1.0941501586914062,-0.3232172241210937,9.696516723632811,25.330000000000002
2025-10-20T13:55:43.105432,5.404580152671755,2.122137404580153,0.9541984732824428,0.7038952880859375,-0.38307226562499996,9.411606726074218,25.56529411764706
2025-10-20T13:55:43.122210,6.030534351145038,0.9083969465648855,1.083969465648855,0.7613561279296874,-1.0295067138671874,9.519345800781249,25.377058823529413
2025-10-20T13:55:43.138987,4.580152671755725,0.6946564885496184,1.1297709923664123,0.5099649536132812,-0.01915361328125,9.244012609863281,25.51823529411765
2025-10-20T13:55:43.155764,4.450381679389313,1.3511450381679388,1.0534351145038168,-0.08858546142578125,-1.0845733520507812,9.686939916992188,25.424117647058825
2025-10-20T13:55:43.172533,3.3206106870229006,1.1984732824427482,1.2290076335877862,0.7589619262695312,-0.33039982910156246,9.358934289550781,25.471176470588237
2025-10-20T13:55:43.189303,2.572519083969466,1.6870229007633588,1.16793893129771,0.5243301635742187,-0.23702596435546874,10.053252770996092,25.471176470588237
2025-10-20T13:55:43.206081,1.7328244274809161,1.6106870229007633,1.2213740458015268,0.4429273071289062,0.6368576416015624,9.246406811523437,25.51823529411765
2025-10-20T13:55:43.223123,1.83206106870229,1.0916030534351144,1.0763358778625953,0.9074024291992187,-0.9624690673828125,9.967061511230469,25.51823529411765
2025-10-20T13:55:43.239930,-0.22137404580152673,1.6793893129770991,1.4351145038167938,0.3806780639648437,0.5243301635742187,9.380482104492186,25.56529411764706
2025-10-20T13:55:43.256717,-0.5801526717557252,1.5954198473282444,1.2442748091603053,0.39983167724609375,-0.737414111328125,9.191340173339842,25.377058823529413
2025-10-20T13:55:43.273493,-2.267175572519084,1.381679389312977,1.450381679389313,0.699106884765625,-0.19153613281249998,9.452308154296874,25.51823529411765
2025-10-20T13:55:43.290269,-3.572519083969466,1.3358778625954197,1.7251908396946565,0.5865794067382812,0.04548983154296875,9.490615380859374,25.56529411764706
2025-10-20T13:55:43.307046,-3.7786259541984735,0.8854961832061069,1.7938931297709924,0.7661445312499999,-0.5339069702148437,8.470685473632813,25.471176470588237
2025-10-20T13:55:43.323822,-7.603053435114504,1.16793893129771,1.748091603053435,0.277727392578125,-0.7278373046875,10.223241088867187,25.56529411764706
2025-10-20T13:55:43.340598,-6.488549618320611,1.1374045801526718,1.6870229007633588,0.13168109130859373,0.507570751953125,8.506598498535157,25.424117647058825
2025-10-20T13:55:43.357372,-7.473282442748092,1.3511450381679388,1.6946564885496183,-0.15322890625,-0.5985504150390625,9.732429748535155,25.61235294117647
2025-10-20T13:55:43.374147,-8.549618320610687,0.6641221374045801,2.198473282442748,0.6943184814453125,-0.07900865478515624,9.255983618164063,25.56529411764706
2025-10-20T13:55:43.390922,-9.305343511450381,0.5648854961832062,1.9236641221374047,0.22026655273437498,-0.105344873046875,9.215282189941405,25.377058823529413
2025-10-20T13:55:43.407696,-9.374045801526718,0.2595419847328244,1.83206106870229,0.5195417602539062,-0.8283937744140625,9.054870678710937,25.424117647058825
2025-10-20T13:55:43.424469,-10.603053435114504,0.21374045801526717,2.015267175572519,0.5817910034179687,-0.05746083984375,8.901641772460938,25.51823529411765
2025-10-20T13:55:43.441239,-10.67175572519084,0.29770992366412213,1.8854961832061068,0.5458779785156249,-0.8092401611328125,8.911218579101561,25.471176470588237
2025-10-20T13:55:43.458014,-10.099236641221374,-0.12213740458015267,3.816793893129771,0.1005564697265625,-0.8738836059570312,9.255983618164063,25.471176470588237
2025-10-20T13:55:43.474790,-10.954198473282442,0.1297709923664122,1.7557251908396947,0.39743747558593745,-0.0383072265625,8.695740429687499,25.51823529411765
2025-10-20T13:55:43.491564,-10.740458015267176,-0.11450381679389313,1.7633587786259541,0.21308394775390624,-0.9121908325195311,9.567229833984374,25.424117647058825
2025-10-20T13:55:43.508340,-10.98473282442748,-0.4198473282442748,1.7633587786259541,0.5961562133789062,-0.040701428222656245,9.131485131835937,25.56529411764706
2025-10-20T13:55:43.525117,-10.297709923664122,-0.6946564885496184,1.618320610687023,0.3112462158203125,-0.4644751220703125,8.978256225585938,25.471176470588237
2025-10-20T13:55:43.541884,-10.709923664122137,-0.8015267175572519,1.5267175572519085,0.02633621826171875,-0.5626373901367188,8.683769421386717,25.51823529411765
2025-10-20T13:55:43.558659,-10.01526717557252,-1.2748091603053435,1.6030534351145038,0.32561142578124996,-1.2737152832031249,9.248801013183593,25.471176470588237
2025-10-20T13:55:43.575433,-10.114503816793894,-0.7709923664122137,1.534351145038168,0.201112939453125,0.36391865234375,8.8489693359375,25.56529411764706
2025-10-20T13:55:43.592208,-7.969465648854962,-1.5038167938931297,1.1526717557251909,0.2154781494140625,-1.4149731811523436,9.13627353515625,25.471176470588237
2025-10-20T13:55:43.608983,-8.83206106870229,-1.3511450381679388,1.2366412213740459,0.5291185668945312,-0.4261678955078125,8.99501563720703,25.51823529411765
2025-10-20T13:55:43.625757,-7.404580152671755,-1.450381679389313,1.2748091603053435,0.34715924072265625,-0.9457096557617187,8.75320126953125,25.56529411764706
2025-10-20T13:55:43.642532,-7.236641221374046,-1.1374045801526718,0.6564885496183206,0.3806780639648437,-0.6344634399414062,9.126696728515624,25.471176470588237
2025-10-20T13:55:43.659336,-6.091603053435114,-1.4885496183206106,0.8015267175572519,0.22026655273437498,-0.9026140258789062,8.99501563720703,25.471176470588237
2025-10-20T13:55:43.676113,-5.183206106870229,-1.748091603053435,0.8625954198473282,0.4860229370117187,-0.9864110839843749,8.949525805664061,25.424117647058825
2025-10-20T13:55:43.692890,-4.290076335877862,-0.8702290076335878,0.46564885496183206,0.4836287353515625,-1.177947216796875,9.215282189941405,25.471176470588237
2025-10-20T13:55:43.709705,-2.6793893129770994,-2.1297709923664123,0.3893129770992366,0.49320554199218747,-0.6464344482421874,9.0788126953125,25.471176470588237
2025-10-20T13:55:43.726506,-2.1297709923664123,-1.3282442748091603,0.22137404580152673,0.34237083740234375,-0.7158662963867187,9.387664709472656,25.471176470588237
2025-10-20T13:55:43.743296,-1.2061068702290076,-2.0229007633587788,0.16793893129770993,0.00239420166015625,-1.0749965454101562,9.066841687011719,25.471176470588237
2025-10-20T13:55:43.760150,-0.5419847328244275,-1.3511450381679388,0.09923664122137404,0.24899697265624998,-0.43574470214843747,9.236830004882812,25.471176470588237
2025-10-20T13:55:43.776940,0.7251908396946565,-1.1068702290076335,1.9389312977099236,0.5051765502929687,-0.9816226806640624,9.579200842285156,25.424117647058825
2025-10-20T13:55:43.793710,1.6030534351145038,-1.4809160305343512,0.2824427480916031,0.4908113403320312,-0.5746083984375,9.069235888671875,25.51823529411765
2025-10-20T13:55:43.810488,2.33587786259542,-0.9541984732824428,-0.183206106870229,0.8834604125976562,-1.1827356201171875,9.330203869628905,25.377058823529413
2025-10-20T13:55:43.827323,3.7251908396946565,-2.5419847328244276,-0.03816793893129771,0.6703764648437499,-0.5243301635742187,9.366116894531249,25.471176470588237
2025-10-20T13:55:43.844114,5.091603053435114,-1.366412213740458,-0.732824427480916,0.9026140258789062,-1.20667763671875,9.143456140136719,25.377058823529413
2025-10-20T13:55:43.860888,4.908396946564886,-1.6946564885496183,-0.3282442748091603,0.14125789794921875,-0.36152445068359373,9.30147344970703,25.424117647058825
2025-10-20T13:55:43.877674,6.099236641221374,-0.6870229007633588,-0.4198473282442748,0.44532150878906246,-1.1228805786132812,9.832986218261718,25.471176470588237
2025-10-20T13:55:43.895037,7.6106870229007635,-1.3358778625954197,-0.15267175572519084,0.5578489868164063,-0.7398083129882812,9.354145886230468,25.51823529411765
2025-10-20T13:55:43.912691,7.030534351145038,-0.7022900763358778,-0.2748091603053435,0.5339069702148437,-0.19632453613281248,9.581595043945311,25.471176470588237
2025-10-20T13:55:43.929489,8.358778625954198,-1.183206106870229,0.03816793893129771,0.565031591796875,-1.0845733520507812,9.282319836425781,25.424117647058825
2025-10-20T13:55:43.946262,8.366412213740459,-0.6641221374045801,-0.2824427480916031,0.9074024291992187,-0.49320554199218747,9.466673364257812,25.51823529411765
2025-10-20T13:55:43.963046,8.305343511450381,1.9083969465648856,-0.12213740458015267,0.5339069702148437,-0.7996633544921875,9.066841687011719,25.471176470588237
2025-10-20T13:55:43.979830,8.213740458015268,0.007633587786259542,-1.9312977099236641,0.5961562133789062,-0.4070142822265625,9.665392102050781,25.56529411764706
2025-10-20T13:55:43.996606,8.893129770992367,0.4732824427480916,0.1297709923664122,0.3902548706054687,-0.9648632690429687,9.6151138671875,25.424117647058825
2025-10-20T13:55:44.013381,8.114503816793894,1.0534351145038168,0.12213740458015267,0.5722141967773438,-0.11731588134765625,9.880870251464843,25.471176470588237
2025-10-20T13:55:44.030155,7.656488549618321,0.7786259541984732,0.366412213740458,0.7589619262695312,-0.02154781494140625,9.354145886230468,25.377058823529413
2025-10-20T13:55:44.046929,7.320610687022901,0.33587786259541985,0.3816793893129771,0.4836287353515625,-0.9983820922851562,9.708487731933593,25.56529411764706
2025-10-20T13:55:44.063702,5.809160305343512,1.702290076335878,0.6335877862595419,0.5123591552734374,-0.5698199951171875,9.445125549316407,25.424117647058825
2025-10-20T13:55:44.080502,5.396946564885496,1.9465648854961832,0.549618320610687,0.55545478515625,-0.9313444458007812,9.770736975097655,25.424117647058825
2025-10-20T13:55:44.097292,4.885496183206107,1.3587786259541985,0.8931297709923665,0.4213794921875,-1.0869675537109373,9.631873278808593,25.471176470588237
2025-10-20T13:55:44.114068,3.1068702290076335,2.3435114503816794,1.015267175572519,0.7541735229492187,0.023942016601562498,9.481038574218749,25.471176470588237
2025-10-20T13:55:44.130842,3.145038167938931,0.7557251908396947,1.3053435114503817,0.8259995727539062,-0.7829039428710937,9.423577734375,25.51823529411765
2025-10-20T13:55:44.147622,1.1145038167938932,2.9236641221374047,1.3206106870229009,0.4572925170898437,-0.10773907470703124,10.105925207519531,25.424117647058825
2025-10-20T13:55:44.164403,0.4351145038167939,1.8854961832061068,1.4274809160305344,0.5219359619140624,-0.5051765502929687,9.02135185546875,25.471176470588237
2025-10-20T13:55:44.181178,-1.0381679389312977,3.213740458015267,1.2595419847328244,0.4525041137695312,-0.9528922607421875,9.854534033203125,25.471176470588237
2025-10-20T13:55:44.197951,-2.015267175572519,1.916030534351145,1.748091603053435,0.3112462158203125,0.062249243164062495,9.22485899658203,25.51823529411765
2025-10-20T13:55:44.214724,-3.2977099236641223,2.8931297709923665,1.8931297709923665,0.5482721801757812,-0.15322890625,9.205705383300781,25.424117647058825
2025-10-20T13:55:44.231507,-3.3053435114503817,1.618320610687023,1.8396946564885497,0.4525041137695312,-1.1372457885742187,9.60793126220703,25.471176470588237
2025-10-20T13:55:44.248312,-6.396946564885496,2.4732824427480917,1.9923664122137406,0.5602431884765625,0.7781155395507812,9.196128576660156,25.471176470588237
2025-10-20T13:55:44.265100,-4.793893129770993,1.2748091603053435,1.7938931297709924,0.35673604736328124,-1.0606313354492187,9.131485131835937,25.56529411764706
2025-10-20T13:55:44.281876,-6.99236641221374,2.3282442748091605,1.7251908396946565,0.6488286499023437,0.622492431640625,9.931148486328125,25.51823529411765
2025-10-20T13:55:44.298658,-6.305343511450381,1.2671755725190839,0.06870229007633588,0.7254431030273437,-0.2705447875976562,8.705317236328124,25.56529411764706
2025-10-20T13:55:44.315448,-8.106870229007633,1.748091603053435,1.717557251908397,0.47884033203125,-0.44532150878906246,9.595960253906249,25.377058823529413
2025-10-20T13:55:44.332229,-7.938931297709924,0.6793893129770993,2.099236641221374,0.44532150878906246,-0.4165910888671875,8.839392529296875,25.471176470588237
2025-10-20T13:55:44.349011,-9.17557251908397,0.648854961832061,2.068702290076336,0.5099649536132812,0.6631938598632812,9.088389501953124,25.471176470588237
2025-10-20T13:55:44.365787,-8.885496183206106,1.0916030534351144,3.885496183206107,0.040701428222656245,-0.9816226806640624,9.394847314453125,25.51823529411765
2025-10-20T13:55:44.382562,-10.061068702290076,0.007633587786259542,2.3587786259541983,0.928950244140625,0.09816226806640624,9.567229833984374,25.51823529411765
2025-10-20T13:55:44.399337,-10.13740458015267,0.183206106870229,2.0839694656488548,0.26815058593749996,-0.011971008300781249,9.038111267089842,25.471176470588237
2025-10-20T13:55:44.416112,-10.091603053435115,-0.7251908396946565,2.198473282442748,0.36152445068359373,-0.5626373901367188,8.590395556640624,25.471176470588237
2025-10-20T13:55:44.432888,-10.312977099236642,-0.5572519083969466,2.4732824427480917,0.8858546142578124,-0.32561142578124996,8.992621435546875,25.51823529411765
2025-10-20T13:55:44.449663,-10.221374045801527,-0.6335877862595419,2.5801526717557253,0.3711012573242187,-0.32082302246093747,8.690952026367187,25.424117647058825
2025-10-20T13:55:44.466434,-9.34351145038168,-1.8625954198473282,2.6717557251908395,0.4429273071289062,-0.6153098266601562,9.49300958251953,25.471176470588237
2025-10-20T13:55:44.483209,-8.183206106870228,-0.03816793893129771,2.3435114503816794,0.016759411621093748,-0.5602431884765625,8.623914379882812,25.56529411764706
2025-10-20T13:55:44.499981,-8.778625954198473,-1.6412213740458015,2.0229007633587788,0.36391865234375,-1.4101847778320311,8.93755479736328,25.424117647058825
2025-10-20T13:55:44.516753,-9.236641221374045,-1.0229007633587786,2.1526717557251906,0.6177040283203125,-0.13168109130859373,9.054870678710937,25.51823529411765
2025-10-20T13:55:44.533526,-8.114503816793894,-1.8473282442748091,1.83206106870229,0.39264907226562495,-1.005564697265625,8.650250598144531,25.56529411764706
2025-10-20T13:55:44.550354,-7.519083969465649,-1.7404580152671756,1.7251908396946565,0.5147533569335937,-1.0414777221679687,9.239224206542968,25.471176470588237
2025-10-20T13:55:44.567157,-6.2748091603053435,-1.9389312977099236,1.5877862595419847,0.55545478515625,-0.2561795776367187,9.210493786621093,25.471176470588237
2025-10-20T13:55:44.583941,-4.9465648854961835,-1.450381679389313,1.3129770992366412,0.612915625,-0.5219359619140624,9.30147344970703,25.51823529411765
2025-10-20T13:55:44.600736,-3.2061068702290076,-2.0610687022900764,1.1526717557251909,0.2561795776367187,-1.43652099609375,9.543287817382812,25.471176470588237
2025-10-20T13:55:44.617581,-3.595419847328244,-2.4427480916030535,1.381679389312977,0.46208092041015625,0.14604630126953125,8.832209924316405,25.471176470588237
2025-10-20T13:55:44.634361,-1.4274809160305344,-2.5801526717557253,0.6870229007633588,0.16041151123046873,-1.5897499023437498,8.815450512695312,25.471176470588237
2025-10-20T13:55:44.651136,-1.8854961832061068,-2.2213740458015265,0.9694656488549618,0.23702596435546874,-0.354341845703125,9.165003955078124,25.56529411764706
2025-10-20T13:55:44.667909,0.10687022900763359,-2.1526717557251906,0.6946564885496184,0.5913678100585937,-0.5961562133789062,9.028534460449219,25.51823529411765
2025-10-20T13:55:44.685201,1.0610687022900764,-2.1374045801526718,0.5267175572519084,0.5386953735351562,-0.3806780639648437,9.8449572265625,25.424117647058825
2025-10-20T13:55:44.702003,2.49618320610687,-2.7709923664122136,0.5190839694656488,1.0031704956054688,-1.1420341918945311,9.471461767578125,25.51823529411765
2025-10-20T13:55:44.718786,2.50381679389313,-3.0916030534351147,0.4961832061068702,0.5889736083984375,0.11013327636718749,9.380482104492186,25.56529411764706
2025-10-20T13:55:44.735560,3.4427480916030535,-1.2061068702290076,0.22137404580152673,0.97683427734375,-1.3000515014648437,9.361328491210937,25.56529411764706
2025-10-20T13:55:44.752334,1.9923664122137406,-2.3053435114503817,0.5648854961832062,0.7302315063476562,-0.47165772705078124,8.86094034423828,25.51823529411765
2025-10-20T13:55:44.769108,4.152671755725191,-1.4427480916030535,0.25190839694656486,0.5099649536132812,-0.8547299926757812,9.658209497070311,25.471176470588237
2025-10-20T13:55:44.785881,4.427480916030534,-1.0763358778625953,0.29770992366412213,0.16998831787109375,-0.2154781494140625,9.246406811523437,25.471176470588237
2025-10-20T13:55:44.802656,4.931297709923665,-1.0916030534351144,-1.8778625954198473,0.565031591796875,-0.8188169677734375,9.773131176757811,25.471176470588237
2025-10-20T13:55:44.819432,4.549618320610687,-1.4427480916030535,0.04580152671755725,0.8834604125976562,-0.4333505004882812,9.387664709472656,25.424117647058825
2025-10-20T13:55:44.836211,4.778625954198473,-1.7251908396946565,0.22137404580152673,0.4261678955078125,-0.8379705810546875,9.373299499511718,25.471176470588237
2025-10-20T13:55:44.852985,3.7404580152671754,1.9236641221374047,0.08396946564885496,0.6703764648437499,-0.7302315063476562,9.126696728515624,25.377058823529413
2025-10-20T13:55:44.869760,4.923664122137405,-0.4732824427480916,0.3282442748091603,0.7302315063476562,-0.7493851196289062,9.775525378417969,25.51823529411765
2025-10-20T13:55:44.886532,4.145038167938932,0.20610687022900764,0.20610687022900764,0.2561795776367187,-0.05746083984375,9.86411083984375,25.51823529411765
2025-10-20T13:55:44.903305,4.083969465648855,0.5114503816793893,0.17557251908396945,0.354341845703125,-0.6009446166992187,9.234435803222656,25.377058823529413
2025-10-20T13:55:44.920119,3.66412213740458,0.9465648854961832,0.20610687022900764,1.0989385620117187,-0.7398083129882812,9.325415466308593,25.471176470588237
2025-10-20T13:55:44.937046,4.129770992366412,-0.05343511450381679,0.4732824427480916,0.7829039428710937,-0.9600748657226562,9.91438907470703,25.424117647058825
2025-10-20T13:55:44.953916,2.7480916030534353,1.0687022900763359,0.6030534351145038,0.4333505004882812,-0.0430956298828125,8.927977990722656,25.51823529411765
2025-10-20T13:55:44.972055,4.038167938931298,1.2900763358778626,0.44274809160305345,0.622492431640625,-0.5482721801757812,8.79150849609375,25.51823529411765
2025-10-20T13:55:44.989012,3.3435114503816794,0.9236641221374046,0.37404580152671757,0.3447650390625,-0.47165772705078124,9.866505041503906,25.471176470588237
2025-10-20T13:55:45.005885,3.015267175572519,1.916030534351145,0.5648854961832062,0.7900865478515624,-0.3184288208007812,9.047688073730468,25.471176470588237
2025-10-20T13:55:45.022830,2.450381679389313,1.7328244274809161,0.8473282442748091,0.6871358764648438,-0.10773907470703124,9.926360083007811,25.377058823529413
2025-10-20T13:55:45.039716,2.1908396946564888,1.7099236641221374,1.1908396946564885,0.8283937744140625,-0.19153613281249998,8.892064965820312,25.471176470588237
2025-10-20T13:55:45.056572,1.5419847328244274,1.183206106870229,1.4122137404580153,0.4860229370117187,-0.5746083984375,9.303867651367186,25.377058823529413
2025-10-20T13:55:45.073412,1.8396946564885497,2.0,1.0763358778625953,0.4070142822265625,-0.15322890625,9.179369165039063,25.471176470588237
2025-10-20T13:55:45.090247,0.3053435114503817,1.7557251908396947,1.4122137404580153,0.39743747558593745,-0.7996633544921875,9.296685046386719,25.56529411764706
2025-10-20T13:55:45.107096,-1.16793893129771,2.9923664122137406,1.702290076335878,0.6823474731445313,0.0718260498046875,9.457096557617186,25.471176470588237
2025-10-20T13:55:45.123938,-1.2366412213740459,2.312977099236641,1.916030534351145,0.5602431884765625,-0.42377369384765623,9.356540087890625,25.471176470588237
2025-10-20T13:55:45.140803,-1.7633587786259541,1.6870229007633588,1.8473282442748091,0.6655880615234374,-0.5386953735351562,9.878476049804688,25.471176470588237
2025-10-20T13:55:45.157668,-2.877862595419847,2.3969465648854964,2.16793893129771,0.7781155395507812,-0.6057330200195312,9.433154541015625,25.56529411764706
2025-10-20T13:55:45.174529,-3.7938931297709924,2.595419847328244,2.3282442748091605,0.17238251953125,0.2442085693359375,9.270348828125,25.56529411764706
2025-10-20T13:55:45.191379,-1.984732824427481,2.3282442748091605,2.3740458015267176,0.6153098266601562,-1.22583125,9.421183532714844,25.56529411764706
2025-10-20T13:55:45.208226,-5.450381679389313,2.366412213740458,2.2595419847328246,0.47644613037109373,0.5506663818359374,9.30147344970703,25.377058823529413
2025-10-20T13:55:45.225078,-5.419847328244275,2.0381679389312977,2.267175572519084,0.41419688720703124,-0.5817910034179687,8.865728747558594,25.51823529411765
2025-10-20T13:55:45.241944,-6.786259541984733,3.480916030534351,2.3587786259541983,0.5817910034179687,-0.3327940307617187,9.983820922851562,25.51823529411765
2025-10-20T13:55:45.258801,-7.534351145038168,1.9236641221374047,2.4427480916030535,0.16519991455078123,-0.10295067138671875,8.810662109374999,25.51823529411765
2025-10-20T13:55:45.275647,-7.748091603053435,1.183206106870229,2.16793893129771,0.7326257080078125,-0.55545478515625,9.634267480468749,25.424117647058825
2025-10-20T13:55:45.292498,-8.129770992366412,1.7099236641221374,2.3053435114503817,0.46208092041015625,-0.2609679809570312,9.277531433105468,25.51823529411765
2025-10-20T13:55:45.309352,-8.595419847328245,0.9007633587786259,2.2290076335877864,0.7134720947265625,-0.06703764648437499,9.459490759277344,25.51823529411765
2025-10-20T13:55:45.326202,-8.625954198473282,0.816793893129771,2.1297709923664123,0.19871873779296872,-0.5003881469726562,9.244012609863281,25.51823529411765
2025-10-20T13:55:45.343060,-9.954198473282442,1.5954198473282444,2.16793893129771,0.8188169677734375,-0.07422025146484375,9.320627062988281,25.424117647058825
2025-10-20T13:55:45.359909,-9.412213740458014,0.44274809160305345,1.9541984732824427,0.27293898925781246,-0.33518823242187495,8.647856396484375,25.51823529411765
2025-10-20T13:55:45.376759,-9.816793893129772,0.9007633587786259,1.7633587786259541,0.5219359619140624,-0.6727706665039062,9.756371765136718,25.51823529411765
2025-10-20T13:55:45.393664,-8.641221374045802,-0.21374045801526717,1.7786259541984732,0.6727706665039062,-0.3136404174804687,9.093177905273437,25.56529411764706
2025-10-20T13:55:45.410544,-9.374045801526718,0.6030534351145038,1.4274809160305344,0.4740519287109375,-0.5674257934570313,9.17458076171875,25.471176470588237
2025-10-20T13:55:45.427406,-8.091603053435115,-0.9847328244274809,1.381679389312977,0.51714755859375,-0.93852705078125,8.954314208984375,25.56529411764706
2025-10-20T13:55:45.444279,-8.450381679389313,-1.0610687022900764,1.4045801526717556,0.9097966308593749,0.14125789794921875,9.045293872070312,25.424117647058825
2025-10-20T13:55:45.461142,-6.9541984732824424,-1.0763358778625953,1.3740458015267176,0.35194764404296874,-0.5506663818359374,8.973467822265624,25.424117647058825
2025-10-20T13:55:45.478063,-7.076335877862595,-0.9083969465648855,1.2900763358778626,-0.1771709228515625,-0.584185205078125,9.72285294189453,25.471176470588237
2025-10-20T13:55:45.494927,-6.297709923664122,-0.9618320610687023,1.0916030534351144,0.07422025146484375,-0.9457096557617187,8.607154968261717,25.471176470588237
2025-10-20T13:55:45.511780,-3.9389312977099236,-0.9694656488549618,1.0,0.22505495605468748,-0.07422025146484375,9.052476477050782,25.471176470588237
2025-10-20T13:55:45.528630,-4.351145038167939,-1.381679389312977,0.9083969465648855,0.49799394531249996,-1.3311761230468748,9.188945971679686,25.471176470588237
2025-10-20T13:55:45.545515,-4.847328244274809,-1.465648854961832,0.9618320610687023,0.7637503295898437,-0.21308394775390624,9.064447485351561,25.471176470588237
2025-10-20T13:55:45.562387,-3.16793893129771,-1.297709923664122,1.0076335877862594,0.41898529052734373,-1.0797849487304687,8.877699755859375,25.51823529411765
2025-10-20T13:55:45.579238,-2.122137404580153,-0.09923664122137404,0.6946564885496184,0.9744400756835937,-1.0726023437499999,9.677363110351562,25.51823529411765
2025-10-20T13:55:45.596089,-1.5801526717557253,-1.282442748091603,0.6946564885496184,0.36152445068359373,-0.086191259765625,8.82981572265625,25.61235294117647
2025-10-20T13:55:45.612941,0.48091603053435117,-1.8473282442748091,0.45038167938931295,0.612915625,-1.3407529296874998,9.478644372558593,25.424117647058825
2025-10-20T13:55:45.629791,0.8549618320610687,-1.2366412213740459,0.6793893129770993,0.49799394531249996,-0.5889736083984375,9.557653027343749,25.424117647058825
2025-10-20T13:55:45.646649,2.1603053435114505,-2.6793893129770994,0.8702290076335878,0.6631938598632812,-0.22026655273437498,8.736441857910156,25.51823529411765
2025-10-20T13:55:45.663495,2.633587786259542,-1.5572519083969465,0.6259541984732825,0.5195417602539062,-1.3838485595703125,9.550470422363281,25.424117647058825
2025-10-20T13:55:45.680344,4.076335877862595,-2.366412213740458,0.9541984732824428,0.5195417602539062,-0.7302315063476562,9.255983618164063,25.424117647058825
2025-10-20T13:55:45.697194,4.870229007633588,-1.381679389312977,1.015267175572519,0.584185205078125,-0.3280056274414062,8.856151940917968,25.51823529411765
2025-10-20T13:55:45.714043,6.129770992366412,-1.2900763358778626,0.7251908396946565,0.8714894042968749,-1.218648645019531,9.911994873046874,25.51823529411765
2025-10-20T13:55:45.730893,5.847328244274809,-3.7938931297709924,0.8320610687022901,0.4740519287109375,-0.24660277099609373,9.239224206542968,25.424117647058825
2025-10-20T13:55:45.747736,6.427480916030534,-1.8702290076335877,0.6870229007633588,0.7781155395507812,-1.158793603515625,9.658209497070311,25.51823529411765
2025-10-20T13:55:45.764581,5.5038167938931295,-0.549618320610687,0.4580152671755725,0.15322890625,-0.7398083129882812,9.404424121093749,25.51823529411765
2025-10-20T13:55:45.781440,6.213740458015267,-0.9312977099236641,0.6183206106870229,0.6248866333007812,-0.737414111328125,8.94473740234375,25.471176470588237
2025-10-20T13:55:45.798635,6.3893129770992365,-0.6183206106870229,0.4732824427480916,0.2825157958984375,-0.9121908325195311,9.641450085449218,25.377058823529413
2025-10-20T13:55:45.816452,6.0534351145038165,0.183206106870229,0.5419847328244275,0.1388636962890625,-0.040701428222656245,9.306261853027344,25.471176470588237
2025-10-20T13:55:45.833328,6.320610687022901,0.11450381679389313,0.5190839694656488,0.8643067993164062,-0.8116343627929687,9.840168823242188,25.424117647058825
2025-10-20T13:55:45.850193,5.541984732824427,-0.42748091603053434,0.8396946564885496,0.689530078125,-0.11731588134765625,9.397241516113281,25.51823529411765
2025-10-20T13:55:45.867031,7.641221374045801,-1.8625954198473282,0.46564885496183206,0.3280056274414062,-0.8978256225585937,9.234435803222656,25.51823529411765
2025-10-20T13:55:45.883861,5.587786259541985,-0.6106870229007634,0.8473282442748091,0.469263525390625,-0.37828386230468747,9.562441430664062,25.51823529411765
2025-10-20T13:55:45.900689,4.473282442748092,0.6335877862595419,0.6641221374045801,0.17238251953125,0.0718260498046875,9.380482104492186,25.424117647058825
2025-10-20T13:55:45.917506,5.190839694656488,-0.007633587786259542,0.8854961832061069,0.05746083984375,-0.40462008056640625,9.100360510253905,25.471176470588237
2025-10-20T13:55:45.934322,3.8396946564885495,1.748091603053435,0.6793893129770993,0.6200982299804687,-0.718260498046875,9.78031378173828,25.471176470588237
2025-10-20T13:55:45.951195,3.2748091603053435,0.15267175572519084,1.0076335877862594,1.0223241088867188,-0.15322890625,9.119514123535156,25.56529411764706
2025-10-20T13:55:45.968052,1.916030534351145,1.534351145038168,0.8396946564885496,0.5339069702148437,-0.296881005859375,9.430760339355468,25.424117647058825
2025-10-20T13:55:45.984906,0.12213740458015267,0.8320610687022901,1.0610687022900764,0.5291185668945312,-0.5865794067382812,9.1554271484375,25.51823529411765
2025-10-20T13:55:46.001750,0.648854961832061,1.1755725190839694,0.9083969465648855,0.6703764648437499,-0.11252747802734374,9.6151138671875,25.424117647058825
2025-10-20T13:55:46.018605,1.0381679389312977,1.5877862595419847,0.7938931297709924,0.258573779296875,-0.4908113403320312,9.459490759277344,25.51823529411765
2025-10-20T13:55:46.035460,-0.05343511450381679,1.3129770992366412,1.0916030534351144,0.6440402465820312,0.3327940307617187,9.787496386718749,25.51823529411765
2025-10-20T13:55:46.052325,-1.2213740458015268,1.2595419847328244,1.1145038167938932,0.5027823486328125,-0.5578489868164063,9.114725720214842,25.51823529411765
2025-10-20T13:55:46.069179,-2.984732824427481,1.6030534351145038,1.1450381679389312,0.1580173095703125,-0.8690952026367187,9.200916979980468,25.51823529411765
2025-10-20T13:55:46.086031,-3.4580152671755724,1.4809160305343512,1.1374045801526718,0.6488286499023437,-0.3447650390625,9.327809667968749,25.51823529411765
2025-10-20T13:55:46.102883,-4.7251908396946565,1.366412213740458,1.0534351145038168,0.3280056274414062,0.21787235107421873,9.734823950195311,25.51823529411765
2025-10-20T13:55:46.119740,-4.557251908396947,1.6412213740458015,1.1603053435114503,0.23223756103515625,-0.5961562133789062,9.344569079589844,25.471176470588237
2025-10-20T13:55:46.136595,-5.564885496183206,1.3358778625954197,1.1526717557251909,0.5865794067382812,-0.2561795776367187,9.315838659667968,25.56529411764706
2025-10-20T13:55:46.153457,-6.343511450381679,1.3511450381679388,1.2290076335877862,0.6871358764648438,-0.9002198242187499,9.313444458007812,25.471176470588237
2025-10-20T13:55:46.170312,-6.66412213740458,0.8473282442748091,1.3358778625954197,0.6464344482421874,-0.7589619262695312,9.112331518554686,25.56529411764706
2025-10-20T13:55:46.187163,-7.824427480916031,0.7175572519083969,1.3206106870229009,0.39983167724609375,0.0383072265625,9.267954626464844,25.471176470588237
2025-10-20T13:55:46.204017,-7.282442748091603,0.8854961832061069,1.1145038167938932,0.3399766357421875,-0.8595183959960937,9.296685046386719,25.471176470588237
2025-10-20T13:55:46.220871,-9.610687022900763,0.16793893129770993,1.1984732824427482,0.9050082275390624,-0.2442085693359375,10.081983190917969,25.471176470588237
2025-10-20T13:55:46.237764,-9.51908396946565,0.7099236641221374,1.0610687022900764,0.19871873779296872,0.4740519287109375,8.774749084472656,25.424117647058825
2025-10-20T13:55:46.254653,-8.206106870229007,-0.1297709923664122,0.7022900763358778,0.19393033447265623,-1.1085153686523437,9.363722692871093,25.51823529411765
2025-10-20T13:55:46.271519,-9.595419847328245,0.4580152671755725,0.8396946564885496,1.0007762939453124,-0.009576806640625,9.605537060546874,25.61235294117647
2025-10-20T13:55:46.288378,-8.961832061068701,-0.5725190839694656,1.1068702290076335,0.603338818359375,-0.47165772705078124,8.774749084472656,25.51823529411765
2025-10-20T13:55:46.305244,-9.213740458015268,0.15267175572519084,0.8549618320610687,0.7613561279296874,-0.9935936889648437,9.7683427734375,25.424117647058825
2025-10-20T13:55:46.322089,-7.6106870229007635,-0.7404580152671756,0.8778625954198473,0.7230489013671875,-0.7158662963867187,9.179369165039063,25.51823529411765
2025-10-20T13:55:46.339009,-8.366412213740459,-0.2366412213740458,1.0534351145038168,0.8020575561523438,0.258573779296875,9.141061938476563,25.56529411764706
2025-10-20T13:55:46.355880,-6.9465648854961835,-0.9007633587786259,1.1145038167938932,0.6751648681640625,-1.3048399047851562,9.354145886230468,25.471176470588237
2025-10-20T13:55:46.372739,-8.435114503816793,-0.3511450381679389,1.1984732824427482,0.15562310791015624,-0.33758243408203126,8.470685473632813,25.56529411764706
2025-10-20T13:55:46.389593,-6.809160305343512,-0.9847328244274809,0.9236641221374046,0.5315127685546874,-0.5027823486328125,8.24802471923828,25.51823529411765
2025-10-20T13:55:46.406480,-7.374045801526718,-0.9618320610687023,0.8473282442748091,0.16280571289062498,-0.6057330200195312,10.149020837402343,25.51823529411765
2025-10-20T13:55:46.423378,-5.740458015267175,-1.8015267175572518,1.1450381679389312,0.8379705810546875,0.5219359619140624,8.762778076171875,25.471176470588237
2025-10-20T13:55:46.440236,-5.0,-1.5114503816793894,0.7480916030534351,0.3495534423828125,-0.7733271362304687,9.70369932861328,25.471176470588237
2025-10-20T13:55:46.457099,-4.580152671755725,-1.4351145038167938,0.8320610687022901,0.948103857421875,-0.5363011718749999,8.815450512695312,25.471176470588237
2025-10-20T13:55:46.473979,-3.9236641221374047,-1.7404580152671756,0.7633587786259542,0.5458779785156249,-0.41898529052734373,9.483432775878907,25.471176470588237
2025-10-20T13:55:46.490844,-1.984732824427481,-0.5648854961832062,0.8702290076335878,0.4285620971679687,-0.6177040283203125,8.997409838867187,25.471176470588237
2025-10-20T13:55:46.507696,-2.099236641221374,-1.7404580152671756,0.8244274809160306,0.9265560424804687,-1.0654197387695312,9.7683427734375,25.377058823529413
2025-10-20T13:55:46.524549,-2.618320610687023,-1.099236641221374,1.2213740458015268,0.6823474731445313,0.3327940307617187,8.913612780761719,25.471176470588237
2025-10-20T13:55:46.541404,-1.1908396946564885,-1.4351145038167938,1.0305343511450382,0.6057330200195312,-1.1276689819335937,9.809044201660155,25.51823529411765
2025-10-20T13:55:46.558265,-1.3740458015267176,-1.2442748091603053,1.6870229007633588,0.3136404174804687,-0.033518823242187495,8.968679418945312,25.51823529411765
2025-10-20T13:55:46.575118,-1.0381679389312977,-0.6793893129770993,1.3511450381679388,0.430956298828125,-0.8595183959960937,9.423577734375,25.51823529411765
2025-10-20T13:55:46.591973,-0.183206106870229,-0.8396946564885496,1.6259541984732824,0.6153098266601562,-0.8355763793945312,9.069235888671875,25.424117647058825
2025-10-20T13:55:46.608843,0.030534351145038167,-0.5190839694656488,1.748091603053435,0.8906430175781249,-0.8379705810546875,9.90241806640625,25.471176470588237
2025-10-20T13:55:46.625703,1.083969465648855,-0.3435114503816794,0.0,0.5099649536132812,-0.36152445068359373,8.839392529296875,25.56529411764706
2025-10-20T13:55:46.642557,1.916030534351145,-1.1755725190839694,1.8549618320610688,0.5291185668945312,-1.180341418457031,9.734823950195311,25.471176470588237
2025-10-20T13:55:46.660301,1.748091603053435,-0.3435114503816794,1.9389312977099236,0.8451531860351562,-0.4572925170898437,8.836998327636719,25.424117647058825
2025-10-20T13:55:46.677180,1.9236641221374047,-0.6946564885496184,1.8549618320610688,0.3112462158203125,-0.8092401611328125,9.315838659667968,25.51823529411765
2025-10-20T13:55:46.694034,2.0,0.03816793893129771,1.916030534351145,0.7541735229492187,-0.5961562133789062,8.942343200683593,25.51823529411765
2025-10-20T13:55:46.710892,2.5572519083969465,-0.48854961832061067,2.068702290076336,0.6512228515624999,-0.7493851196289062,9.564835632324218,25.51823529411765
2025-10-20T13:55:46.727746,2.9389312977099236,-1.9541984732824427,2.16793893129771,0.8834604125976562,-0.19393033447265623,8.954314208984375,25.56529411764706
2025-10-20T13:55:46.744599,3.877862595419847,-0.3511450381679389,2.053435114503817,0.33758243408203126,-0.8786720092773437,9.789890588378906,25.471176470588237
2025-10-20T13:55:46.761465,3.9770992366412212,-0.44274809160305345,2.1526717557251906,0.7948749511718749,-0.316034619140625,8.710105639648438,25.471176470588237
2025-10-20T13:55:46.778318,4.4961832061068705,-0.7175572519083969,2.114503816793893,0.7206546997070312,-0.7924807495117187,9.548076220703125,25.471176470588237
2025-10-20T13:55:46.795174,3.480916030534351,-0.42748091603053434,2.282442748091603,0.5889736083984375,-0.076614453125,8.702923034667968,25.56529411764706
2025-10-20T13:55:46.812024,5.190839694656488,-1.3435114503816794,2.282442748091603,0.603338818359375,-0.7661445312499999,9.627084875488281,25.56529411764706
2025-10-20T13:55:46.828919,4.564885496183206,0.022900763358778626,2.4198473282442747,0.37828386230468747,-0.29927520751953124,9.404424121093749,25.471176470588237
2025-10-20T13:55:46.845787,4.893129770992366,-0.45038167938931295,2.0839694656488548,0.3950432739257812,-1.1420341918945311,9.337386474609374,25.51823529411765
2025-10-20T13:55:46.862637,3.7786259541984735,-0.8473282442748091,2.2290076335877864,0.8714894042968749,-0.26336218261718747,9.612719665527344,25.424117647058825
2025-10-20T13:55:46.879486,3.312977099236641,0.3435114503816794,2.053435114503817,0.239420166015625,-0.8092401611328125,9.047688073730468,25.61235294117647
2025-10-20T13:55:46.896341,3.183206106870229,-1.3358778625954197,2.2442748091603053,0.8978256225585937,-0.5195417602539062,9.320627062988281,25.51823529411765
2025-10-20T13:55:46.913197,1.6488549618320612,1.8015267175572518,2.3206106870229006,0.584185205078125,-0.3711012573242187,9.56962403564453,25.424117647058825
2025-10-20T13:55:46.930042,1.534351145038168,-0.5801526717557252,2.351145038167939,0.5961562133789062,-0.1580173095703125,9.119514123535156,25.51823529411765
2025-10-20T13:55:46.946898,1.1984732824427482,-1.816793893129771,2.4885496183206106,0.3591302490234375,-0.8906430175781249,9.490615380859374,25.61235294117647
2025-10-20T13:55:46.963795,-0.4961832061068702,-1.8091603053435115,2.717557251908397,0.86191259765625,0.3280056274414062,9.543287817382812,25.471176470588237
2025-10-20T13:55:46.980687,-3.7099236641221376,1.4809160305343512,3.2595419847328246,1.7717092285156248,-1.848323681640625,6.8785413696289055,25.471176470588237
2025-10-20T13:55:46.997554,7.343511450381679,-1.9389312977099236,1.8244274809160306,0.01915361328125,-2.920926025390625,8.190563879394531,25.471176470588237
2025-10-20T13:55:47.014412,17.389312977099237,-1.3282442748091603,0.24427480916030533,0.8044517578125,0.7254431030273437,9.26316622314453,25.51823529411765
2025-10-20T13:55:47.031288,14.702290076335878,-0.5954198473282443,0.8625954198473282,0.5674257934570313,-1.3431471313476562,9.165003955078124,25.424117647058825
2025-10-20T13:55:47.048156,15.022900763358779,1.549618320610687,0.1450381679389313,0.689530078125,-0.4285620971679687,9.241618408203124,25.424117647058825
2025-10-20T13:55:47.065043,20.458015267175572,1.1755725190839694,-0.08396946564885496,0.3495534423828125,-1.0390835205078124,8.365340600585936,25.471176470588237
2025-10-20T13:55:47.081951,25.82442748091603,-1.7251908396946565,-1.0076335877862594,0.928950244140625,-0.1580173095703125,10.20887587890625,25.471176470588237
2025-10-20T13:55:47.098829,23.984732824427482,-0.4732824427480916,-0.8320610687022901,0.43574470214843747,-1.0893617553710937,8.939948999023438,25.56529411764706
2025-10-20T13:55:47.115699,24.541984732824428,-0.183206106870229,-1.5114503816793894,0.36631285400390623,-0.9074024291992187,8.540117321777343,25.51823529411765
2025-10-20T13:55:47.132579,29.221374045801525,-0.7404580152671756,-2.435114503816794,0.5722141967773438,-0.59376201171875,9.009380847167968,25.424117647058825
2025-10-20T13:55:47.149453,31.625954198473284,0.5801526717557252,-3.3587786259541983,1.0199299072265624,-0.9983820922851562,9.667786303710937,25.424117647058825
2025-10-20T13:55:47.166316,28.34351145038168,-0.1297709923664122,-3.7251908396946565,0.040701428222656245,-0.33758243408203126,9.165003955078124,25.56529411764706
2025-10-20T13:55:47.183173,27.6793893129771,-0.8244274809160306,-4.229007633587786,0.38307226562499996,-0.3232172241210937,9.18655177001953,25.471176470588237
2025-10-20T13:55:47.200083,26.480916030534353,-1.1450381679389312,-4.519083969465649,0.4285620971679687,0.5913678100585937,9.519345800781249,25.56529411764706
2025-10-20T13:55:47.216946,24.984732824427482,-2.3435114503816794,-4.6183206106870225,0.8690952026367187,0.6464344482421874,9.435548742675781,25.471176470588237
2025-10-20T13:55:47.233803,19.17557251908397,-0.17557251908396945,-4.8320610687022905,0.699106884765625,0.8020575561523438,9.6917283203125,25.51823529411765
2025-10-20T13:55:47.250671,16.740458015267176,-0.04580152671755725,-4.236641221374046,0.6248866333007812,0.7829039428710937,9.179369165039063,25.51823529411765
2025-10-20T13:55:47.267614,14.022900763358779,-0.2595419847328244,-4.251908396946565,0.8403647827148437,0.7517793212890624,9.87608184814453,25.471176470588237
2025-10-20T13:55:47.284488,11.083969465648854,-1.5572519083969465,-3.854961832061069,0.35194764404296874,1.4628572143554686,9.718064538574218,25.56529411764706
2025-10-20T13:55:47.301339,7.732824427480916,-0.5954198473282443,-3.3740458015267176,0.22026655273437498,0.8834604125976562,8.963891015625,25.51823529411765
2025-10-20T13:55:47.318198,1.5648854961832062,-0.8091603053435115,-2.9083969465648853,0.6943184814453125,1.66636435546875,9.947907897949218,25.424117647058825
2025-10-20T13:55:47.335053,0.16030534351145037,-0.22900763358778625,-2.763358778625954,0.5770026000976562,1.218648645019531,9.332598071289063,25.424117647058825
2025-10-20T13:55:47.351909,-2.0610687022900764,-0.9847328244274809,-2.267175572519084,0.20829554443359374,1.3239935180664062,9.80665,25.51823529411765
2025-10-20T13:55:47.368776,-6.343511450381679,1.0076335877862594,-0.030534351145038167,-0.086191259765625,1.177947216796875,9.13627353515625,25.51823529411765
2025-10-20T13:55:47.385633,-8.534351145038167,-1.1297709923664123,-1.3587786259541985,0.7062894897460937,1.0319009155273438,10.019733947753906,25.471176470588237
2025-10-20T13:55:47.402486,-10.374045801526718,0.7480916030534351,-1.381679389312977,0.8212111694335937,0.8906430175781249,9.138667736816405,25.56529411764706
2025-10-20T13:55:47.419340,-10.244274809160306,-1.183206106870229,-1.3053435114503817,0.47165772705078124,0.3136404174804687,9.665392102050781,25.471176470588237
2025-10-20T13:55:47.436192,-14.572519083969466,0.35877862595419846,-0.5877862595419847,0.430956298828125,1.216254443359375,9.648632690429688,25.56529411764706
2025-10-20T13:55:47.453044,-14.740458015267176,-0.7786259541984732,-0.4732824427480916,0.9337386474609375,0.4908113403320312,9.497797985839844,25.377058823529413
2025-10-20T13:55:47.469897,-15.129770992366412,0.5877862595419847,-1.0381679389312977,0.30406361083984373,0.9576806640625,9.595960253906249,25.56529411764706
2025-10-20T13:55:47.486744,-14.900763358778626,0.40458015267175573,-0.7786259541984732,1.0199299072265624,0.3447650390625,9.279925634765624,25.471176470588237
2025-10-20T13:55:47.503596,-16.572519083969464,0.9847328244274809,-0.8244274809160306,0.4429273071289062,0.35673604736328124,9.349357482910156,25.51823529411765
2025-10-20T13:55:47.521310,-15.297709923664122,0.25190839694656486,-1.0305343511450382,0.201112939453125,0.11013327636718749,8.947131604003905,25.471176470588237
2025-10-20T13:55:47.538181,-14.290076335877863,0.7251908396946565,-0.9847328244274809,0.8212111694335937,0.8092401611328125,8.990227233886719,25.56529411764706
2025-10-20T13:55:47.555047,-13.80916030534351,-0.6183206106870229,-1.1526717557251909,0.45968671875,-0.14604630126953125,9.770736975097655,25.471176470588237
2025-10-20T13:55:47.571920,-13.595419847328245,0.22900763358778625,-1.1603053435114503,0.603338818359375,1.0558429321289062,8.966285217285156,25.471176470588237
2025-10-20T13:55:47.588772,-10.267175572519085,-0.31297709923664124,-1.5725190839694656,0.06703764648437499,-0.45968671875,9.445125549316407,25.51823529411765
2025-10-20T13:55:47.605624,-9.938931297709924,0.549618320610687,-1.8396946564885497,0.4525041137695312,0.7876923461914062,9.320627062988281,25.51823529411765
2025-10-20T13:55:47.622469,-7.931297709923665,0.26717557251908397,-2.1068702290076335,0.05027823486328125,0.22744915771484372,8.99501563720703,25.51823529411765
2025-10-20T13:55:47.639316,-6.732824427480916,0.2366412213740458,-2.3053435114503817,0.6751648681640625,0.5458779785156249,9.2320416015625,25.424117647058825
2025-10-20T13:55:47.656165,-3.9083969465648853,0.31297709923664124,-2.8625954198473282,0.6440402465820312,0.01915361328125,8.94473740234375,25.51823529411765
2025-10-20T13:55:47.673018,-3.3206106870229006,-0.22137404580152673,-2.9770992366412212,0.6679822631835937,0.1149216796875,9.260772021484375,25.51823529411765
2025-10-20T13:55:47.689869,-1.9083969465648856,0.3969465648854962,-3.435114503816794,1.1085153686523437,0.689530078125,8.990227233886719,25.51823529411765
2025-10-20T13:55:47.706709,0.3435114503816794,-0.19083969465648856,-3.6946564885496183,0.8164227661132812,0.42377369384765623,9.756371765136718,25.424117647058825
2025-10-20T13:55:47.723573,0.9618320610687023,0.6717557251908397,-3.8931297709923665,0.44532150878906246,0.33758243408203126,8.810662109374999,25.471176470588237
2025-10-20T13:55:47.740428,0.16793893129770993,0.08396946564885496,-4.32824427480916,0.7038952880859375,-0.02633621826171875,9.380482104492186,25.471176470588237
2025-10-20T13:55:47.757291,2.3587786259541983,0.7633587786259542,-4.473282442748092,0.9744400756835937,0.5339069702148437,8.8489693359375,25.471176470588237
2025-10-20T13:55:47.774152,4.4961832061068705,-0.6412213740458015,-4.648854961832061,0.679953271484375,0.3184288208007812,9.30147344970703,25.56529411764706
2025-10-20T13:55:47.790999,3.9618320610687023,0.8244274809160306,-4.938931297709924,0.33758243408203126,0.6009446166992187,9.342174877929686,25.471176470588237
2025-10-20T13:55:47.807845,6.473282442748092,-1.2290076335877862,-5.1679389312977095,0.5458779785156249,0.3591302490234375,9.356540087890625,25.659411764705883
2025-10-20T13:55:47.824684,5.931297709923665,1.083969465648855,-5.351145038167939,0.9169792358398436,0.3495534423828125,9.904812268066406,25.51823529411765
2025-10-20T13:55:47.841537,8.053435114503817,-0.26717557251908397,-5.557251908396947,0.6871358764648438,0.5386953735351562,8.959102612304687,25.424117647058825
2025-10-20T13:55:47.858396,7.106870229007634,0.31297709923664124,-5.587786259541985,0.833182177734375,0.7158662963867187,9.840168823242188,25.51823529411765
2025-10-20T13:55:47.875255,7.442748091603053,-0.4961832061068702,-5.908396946564886,0.5195417602539062,0.8092401611328125,9.066841687011719,25.51823529411765
2025-10-20T13:55:47.892108,6.931297709923665,0.4351145038167939,-5.977099236641221,0.5123591552734374,1.0821791503906248,9.567229833984374,25.51823529411765
2025-10-20T13:55:47.908962,7.267175572519084,-1.9236641221374047,-6.366412213740458,0.6631938598632812,0.4070142822265625,9.397241516113281,25.424117647058825
2025-10-20T13:55:47.925866,6.816793893129771,-0.5343511450381679,-6.198473282442748,0.5985504150390625,0.9097966308593749,9.409212524414063,25.56529411764706
2025-10-20T13:55:47.942748,6.00763358778626,1.1526717557251909,-6.213740458015267,0.40222587890625,0.507570751953125,9.306261853027344,25.56529411764706
2025-10-20T13:55:47.959607,5.190839694656488,-0.8473282442748091,-6.038167938931298,0.8643067993164062,0.488417138671875,9.220070593261719,25.471176470588237
2025-10-20T13:55:47.976456,5.770992366412214,0.549618320610687,-6.2748091603053435,0.74699091796875,0.47644613037109373,9.631873278808593,25.56529411764706
2025-10-20T13:55:47.993304,2.801526717557252,-0.2824427480916031,-6.0534351145038165,1.0079588989257813,0.5698199951171875,9.069235888671875,25.471176470588237
2025-10-20T13:55:48.010152,1.83206106870229,0.5038167938931297,-6.030534351145038,0.9576806640625,1.0390835205078124,10.079588989257813,25.51823529411765
2025-10-20T13:55:48.026998,0.9618320610687023,-1.786259541984733,-6.068702290076335,0.7398083129882812,1.005564697265625,9.296685046386719,25.51823529411765
2025-10-20T13:55:48.043856,-0.6793893129770993,1.0763358778625953,-5.8396946564885495,0.7661445312499999,0.9600748657226562,9.749189160156249,25.61235294117647
2025-10-20T13:55:48.060781,-1.6793893129770991,0.8702290076335878,-5.99236641221374,0.737414111328125,0.718260498046875,9.349357482910156,25.56529411764706
2025-10-20T13:55:48.077649,-2.519083969465649,0.4122137404580153,-5.908396946564886,0.6200982299804687,0.8667010009765624,9.248801013183593,25.471176470588237
2025-10-20T13:55:48.094493,-3.7251908396946565,0.816793893129771,-5.755725190839694,0.9337386474609375,0.5195417602539062,9.0788126953125,25.471176470588237
2025-10-20T13:55:48.111343,-4.290076335877862,1.8015267175572518,-5.67175572519084,0.622492431640625,0.4381389038085937,9.49300958251953,25.56529411764706
2025-10-20T13:55:48.128238,-4.755725190839694,0.48854961832061067,-5.702290076335878,0.3280056274414062,0.37828386230468747,9.658209497070311,25.51823529411765
2025-10-20T13:55:48.145121,-5.312977099236641,0.022900763358778626,-5.557251908396947,0.9169792358398436,1.0726023437499999,9.208099584960937,25.51823529411765
2025-10-20T13:55:48.161983,-5.465648854961832,-0.24427480916030533,-5.511450381679389,0.5315127685546874,0.49799394531249996,9.490615380859374,25.56529411764706
2025-10-20T13:55:48.178846,-5.8396946564885495,-0.03816793893129771,-5.366412213740458,0.8834604125976562,0.8978256225585937,9.337386474609374,25.471176470588237
2025-10-20T13:55:48.195694,-5.404580152671755,-0.31297709923664124,-5.343511450381679,0.4165910888671875,0.17956512451171874,9.485826977539062,25.471176470588237
2025-10-20T13:55:48.212542,-7.763358778625954,-0.7099236641221374,-5.312977099236641,1.0175357055664063,0.6847416748046875,9.169792358398437,25.56529411764706
2025-10-20T13:55:48.229389,-6.648854961832061,-1.2366412213740459,-5.129770992366412,0.4525041137695312,0.17956512451171874,9.167398156738281,25.471176470588237
2025-10-20T13:55:48.246231,-6.099236641221374,-1.015267175572519,-5.068702290076335,0.2059013427734375,0.6560112548828124,9.325415466308593,25.56529411764706
2025-10-20T13:55:48.263082,-6.374045801526718,-1.2442748091603053,-5.038167938931298,0.40222587890625,1.3646949462890625,9.181763366699219,25.56529411764706
2025-10-20T13:55:48.279937,-7.6183206106870225,-1.7633587786259541,-4.9465648854961835,0.7996633544921875,0.8571241943359375,8.9255837890625,25.424117647058825
2025-10-20T13:55:48.296786,-6.358778625954199,-1.2595419847328244,-4.824427480916031,0.7709329345703124,0.9720458740234375,9.217676391601563,25.61235294117647
2025-10-20T13:55:48.313678,-6.244274809160306,-3.877862595419847,-4.6106870229007635,0.6560112548828124,0.5578489868164063,8.992621435546875,25.51823529411765
2025-10-20T13:55:48.330536,-6.595419847328245,-1.6030534351145038,-4.641221374045801,0.8164227661132812,0.48123453369140623,9.188945971679686,25.424117647058825
2025-10-20T13:55:48.347400,-6.33587786259542,-1.4580152671755726,-4.816793893129771,0.430956298828125,1.01514150390625,8.611943371582031,25.471176470588237
2025-10-20T13:55:48.364264,-6.076335877862595,-1.83206106870229,-4.862595419847328,0.9552864624023437,0.36391865234375,9.497797985839844,25.56529411764706
2025-10-20T13:55:48.381267,-6.00763358778626,-1.5572519083969465,-4.8320610687022905,0.28012159423828126,0.97683427734375,9.390058911132812,25.51823529411765
2025-10-20T13:55:48.398140,-6.122137404580153,-1.2366412213740459,-4.763358778625954,0.6392518432617187,0.699106884765625,9.181763366699219,25.56529411764706
2025-10-20T13:55:48.414994,-5.877862595419847,-2.267175572519084,-4.67175572519084,0.7709329345703124,0.3064578125,9.449913952636718,25.471176470588237
2025-10-20T13:55:48.431847,-6.900763358778626,-0.4732824427480916,-4.717557251908397,0.5746083984375,1.2114660400390624,9.512163195800781,25.471176470588237
2025-10-20T13:55:48.448701,-5.961832061068702,-1.7786259541984732,-4.786259541984733,0.6823474731445313,0.258573779296875,8.827421520996094,25.471176470588237
2025-10-20T13:55:48.465550,-7.1679389312977095,1.8854961832061068,-4.6183206106870225,0.5147533569335937,1.2306196533203124,9.830592016601562,25.56529411764706
2025-10-20T13:55:48.482416,-5.458015267175573,-0.816793893129771,-4.870229007633588,0.5434837768554687,0.105344873046875,8.66940421142578,25.471176470588237
2025-10-20T13:55:48.499270,-6.458015267175573,0.2366412213740458,-4.7251908396946565,0.7637503295898437,1.3024457031249999,9.938331091308592,25.471176470588237
2025-10-20T13:55:48.516127,-4.877862595419847,-1.8091603053435115,-4.969465648854962,0.5602431884765625,0.4740519287109375,8.89924757080078,25.471176470588237
2025-10-20T13:55:48.532981,-7.549618320610687,0.5343511450381679,-5.061068702290076,0.3591302490234375,0.5889736083984375,9.727641345214844,25.56529411764706
2025-10-20T13:55:48.549835,-4.648854961832061,0.5954198473282443,-5.251908396946565,0.239420166015625,0.24181436767578124,8.628702783203124,25.51823529411765
2025-10-20T13:55:48.566692,-3.5419847328244276,0.2824427480916031,-5.366412213740458,0.8020575561523438,0.3327940307617187,9.68454571533203,25.51823529411765
2025-10-20T13:55:48.583554,-2.648854961832061,1.5114503816793894,-5.465648854961832,0.09816226806640624,0.23223756103515625,8.951920007324219,25.51823529411765
2025-10-20T13:55:48.600407,-3.6412213740458017,0.32061068702290074,-5.580152671755725,0.9816226806640624,0.7541735229492187,9.617508068847656,25.51823529411765
2025-10-20T13:55:48.617259,-0.7862595419847328,0.0,-5.786259541984733,0.5985504150390625,0.7206546997070312,9.555258825683593,25.424117647058825
2025-10-20T13:55:48.634113,0.6946564885496184,0.732824427480916,-3.931297709923664,0.7541735229492187,1.0199299072265624,9.205705383300781,25.56529411764706
2025-10-20T13:55:48.650973,0.8396946564885496,1.3969465648854962,-6.091603053435114,0.6919242797851562,0.3112462158203125,9.457096557617186,25.471176470588237
2025-10-20T13:55:48.667826,0.8549618320610687,1.4961832061068703,-6.404580152671755,0.5051765502929687,1.2928688964843749,8.975862023925782,25.471176470588237
2025-10-20T13:55:48.684681,2.427480916030534,1.1221374045801527,-6.66412213740458,0.5027823486328125,-0.10295067138671875,9.598354455566406,25.56529411764706
2025-10-20T13:55:48.701537,1.8473282442748091,2.549618320610687,-6.732824427480916,0.5339069702148437,1.0869675537109373,9.222464794921875,25.471176470588237
2025-10-20T13:55:48.718395,4.374045801526718,1.4045801526717556,-6.740458015267175,0.63206923828125,-0.2657563842773437,9.390058911132812,25.56529411764706
2025-10-20T13:55:48.735250,2.7404580152671754,2.404580152671756,-6.694656488549619,0.6105214233398437,1.4341267944335936,9.502586389160156,25.471176470588237
2025-10-20T13:55:48.752103,4.038167938931298,0.9923664122137404,-7.114503816793893,0.5793968017578125,-0.11013327636718749,9.090783703613281,25.471176470588237
2025-10-20T13:55:48.769016,2.1908396946564888,2.7404580152671754,-7.175572519083969,0.8379705810546875,1.2617442749023438,9.22485899658203,25.51823529411765
2025-10-20T13:55:48.785911,3.2595419847328246,1.8625954198473282,-7.0458015267175576,0.5027823486328125,0.5458779785156249,9.253589416503905,25.51823529411765
2025-10-20T13:55:48.802780,2.122137404580153,2.49618320610687,-6.801526717557252,0.37828386230468747,0.86191259765625,9.102754711914063,25.51823529411765
2025-10-20T13:55:48.819696,2.2748091603053435,1.7709923664122138,-6.8320610687022905,0.584185205078125,0.8068459594726562,9.560047229003906,25.471176470588237
2025-10-20T13:55:48.836560,1.5648854961832062,1.3740458015267176,-6.885496183206107,1.0175357055664063,1.0797849487304687,9.60793126220703,25.56529411764706
2025-10-20T13:55:48.853412,1.2671755725190839,1.5801526717557253,-6.801526717557252,0.5315127685546874,0.20829554443359374,9.088389501953124,25.471176470588237
2025-10-20T13:55:48.870293,-1.8778625954198473,1.099236641221374,-6.33587786259542,0.5386953735351562,1.2713210815429687,9.591171850585937,25.56529411764706
2025-10-20T13:55:48.887168,0.007633587786259542,1.0610687022900764,-6.358778625954199,0.8307879760742187,0.076614453125,9.093177905273437,25.424117647058825
2025-10-20T13:55:48.904068,-0.916030534351145,0.7251908396946565,-5.99236641221374,0.8259995727539062,0.9457096557617187,9.406818322753905,25.51823529411765
2025-10-20T13:55:48.921361,-1.015267175572519,0.9923664122137404,-5.908396946564886,0.689530078125,0.6727706665039062,8.923189587402343,25.56529411764706
2025-10-20T13:55:48.938251,-0.6946564885496184,0.4351145038167939,-5.541984732824427,0.5243301635742187,0.4070142822265625,9.469067565917967,25.51823529411765
2025-10-20T13:55:48.955130,-2.16793893129771,0.4961832061068702,-5.465648854961832,0.7541735229492187,1.3958195678710936,9.440337145996093,25.51823529411765
2025-10-20T13:55:48.971999,-1.5877862595419847,-0.03816793893129771,-5.297709923664122,0.7924807495117187,-0.0143652099609375,9.430760339355468,25.424117647058825
2025-10-20T13:55:48.989338,-3.7251908396946565,0.1297709923664122,-5.099236641221374,1.0175357055664063,1.2785036865234374,9.502586389160156,25.51823529411765
2025-10-20T13:55:49.006225,-3.1908396946564888,-0.25190839694656486,-4.969465648854962,0.6775590698242188,0.5410895751953124,8.98304462890625,25.471176470588237
2025-10-20T13:55:49.023074,-2.9389312977099236,-1.0610687022900764,-4.938931297709924,0.4429273071289062,-0.086191259765625,9.919177478027343,25.56529411764706
2025-10-20T13:55:49.039915,-1.9923664122137406,-0.9312977099236641,-4.885496183206107,0.9983820922851562,1.0295067138671874,8.779537487792968,25.471176470588237
2025-10-20T13:55:49.056756,-3.0076335877862594,-1.0229007633587786,-4.916030534351145,0.9792284790039062,0.3064578125,9.698910925292969,25.56529411764706
2025-10-20T13:55:49.073587,-3.5419847328244276,-1.0,-4.870229007633588,1.2330138549804688,0.9959878906249999,9.437942944335937,25.51823529411765
2025-10-20T13:55:49.090429,-2.49618320610687,-1.1068702290076335,-5.038167938931298,0.6344634399414062,0.7230489013671875,9.200916979980468,25.51823529411765
2025-10-20T13:55:49.107264,-3.3893129770992365,-1.9541984732824427,-4.748091603053435,1.3263877197265623,0.8858546142578124,9.552864624023437,25.424117647058825
2025-10-20T13:55:49.124109,-3.732824427480916,-1.2442748091603053,-5.175572519083969,0.46208092041015625,-0.023942016601562498,8.990227233886719,25.51823529411765
2025-10-20T13:55:49.140945,-3.572519083969466,-1.8854961832061068,-4.938931297709924,0.7326257080078125,0.6536170532226562,9.253589416503905,25.61235294117647
2025-10-20T13:55:49.157798,-3.381679389312977,-0.12213740458015267,-5.374045801526718,0.2442085693359375,0.4572925170898437,8.985438830566405,25.51823529411765
2025-10-20T13:55:49.174640,-0.9923664122137404,-3.900763358778626,-5.526717557251908,0.7757213378906249,0.0,9.26316622314453,25.51823529411765
2025-10-20T13:55:49.191502,-3.366412213740458,0.06870229007633588,-5.580152671755725,0.40462008056640625,0.8595183959960937,8.961496813964843,25.61235294117647
2025-10-20T13:55:49.208348,-1.7404580152671756,-1.984732824427481,-5.961832061068702,0.7422025146484375,-0.5195417602539062,8.91840118408203,25.51823529411765
2025-10-20T13:55:49.225199,-3.5877862595419847,-0.8854961832061069,-5.778625954198473,0.93852705078125,1.2330138549804688,9.239224206542968,25.61235294117647
2025-10-20T13:55:49.242310,-1.3435114503816794,-1.1297709923664123,-6.022900763358779,0.41419688720703124,0.1197100830078125,8.66940421142578,25.51823529411765
2025-10-20T13:55:49.259187,-2.3587786259541983,-1.8854961832061068,-5.816793893129771,1.1085153686523437,1.388636962890625,9.730035546875,25.471176470588237
2025-10-20T13:55:49.276038,-0.21374045801526717,-0.20610687022900764,-6.00763358778626,0.5506663818359374,0.5363011718749999,9.17458076171875,25.471176470588237
2025-10-20T13:55:49.292905,-3.7099236641221376,-1.4351145038167938,-5.847328244274809,0.6943184814453125,0.7254431030273437,9.7683427734375,25.377058823529413
2025-10-20T13:55:49.309755,-2.49618320610687,0.4961832061068702,-6.175572519083969,0.718260498046875,1.1180921752929687,9.157821350097656,25.56529411764706
2025-10-20T13:55:49.326632,-3.6793893129770994,-1.6259541984732824,-6.1679389312977095,0.603338818359375,-0.22026655273437498,9.351751684570312,25.471176470588237
2025-10-20T13:55:49.343545,-3.8396946564885495,0.3893129770992366,-6.099236641221374,0.33518823242187495,1.1516109985351561,8.762778076171875,25.56529411764706
2025-10-20T13:55:49.360403,-2.3435114503816794,-1.2366412213740459,-6.1679389312977095,0.5291185668945312,-0.1484405029296875,9.433154541015625,25.471176470588237
2025-10-20T13:55:49.377249,-3.351145038167939,1.9083969465648856,-6.1603053435114505,0.3758896606445312,1.0893617553710937,9.047688073730468,25.471176470588237
2025-10-20T13:55:49.394110,-2.595419847328244,-0.3816793893129771,-6.099236641221374,1.1875240234375,0.22026655273437498,9.440337145996093,25.51823529411765
2025-10-20T13:55:49.410962,-4.175572519083969,1.8473282442748091,-6.015267175572519,0.833182177734375,1.0965443603515623,9.366116894531249,25.61235294117647
2025-10-20T13:55:49.427810,-3.687022900763359,0.07633587786259542,-6.00763358778626,1.0582371337890624,0.565031591796875,9.651026892089844,25.51823529411765
2025-10-20T13:55:49.444655,-5.175572519083969,0.7480916030534351,-6.030534351145038,0.833182177734375,1.0534487304687499,9.112331518554686,25.51823529411765
2025-10-20T13:55:49.461593,-4.0,0.6946564885496184,-5.694656488549619,1.369483349609375,0.4908113403320312,9.619902270507811,25.471176470588237
2025-10-20T13:55:49.478456,-4.625954198473282,1.7251908396946565,-7.801526717557252,0.7254431030273437,0.7589619262695312,9.442731347656249,25.471176470588237
2025-10-20T13:55:49.495312,-2.8931297709923665,1.0305343511450382,-5.732824427480916,0.5578489868164063,0.5147533569335937,9.141061938476563,25.471176470588237
2025-10-20T13:55:49.512159,-3.480916030534351,1.2900763358778626,-5.816793893129771,0.17238251953125,0.1388636962890625,9.313444458007812,25.471176470588237
2025-10-20T13:55:49.529029,-2.83206106870229,0.5343511450381679,-5.587786259541985,1.189918225097656,0.6967126831054687,9.14824454345703,25.56529411764706
2025-10-20T13:55:49.545952,-3.3206106870229006,1.0381679389312977,-5.732824427480916,0.6560112548828124,0.33518823242187495,9.64623848876953,25.424117647058825
2025-10-20T13:55:49.562811,-2.732824427480916,0.5801526717557252,-5.320610687022901,0.7709329345703124,0.7302315063476562,8.865728747558594,25.51823529411765
2025-10-20T13:55:49.579664,-3.8473282442748094,0.9923664122137404,-5.465648854961832,0.6823474731445313,-0.1005564697265625,9.41639512939453,25.424117647058825
2025-10-20T13:55:49.596531,-2.6259541984732824,0.6717557251908397,-5.236641221374046,1.0582371337890624,1.2042834350585936,9.17458076171875,25.51823529411765
2025-10-20T13:55:49.613456,-1.7938931297709924,0.7557251908396947,-5.152671755725191,0.6177040283203125,0.0143652099609375,8.971073620605468,25.471176470588237
2025-10-20T13:55:49.630329,-3.6412213740458017,0.21374045801526717,-4.7251908396946565,0.9217676391601562,1.458068811035156,9.734823950195311,25.56529411764706
2025-10-20T13:55:49.647188,1.6946564885496183,0.6030534351145038,-4.67175572519084,0.8810662109374999,0.14604630126953125,8.89924757080078,25.471176470588237
2025-10-20T13:55:49.664045,-0.03816793893129771,-0.42748091603053434,-4.641221374045801,1.0319009155273438,0.5746083984375,9.6151138671875,25.471176470588237
2025-10-20T13:55:49.680899,-1.3206106870229009,1.4427480916030535,-4.572519083969466,0.6296750366210937,0.6847416748046875,8.444349255371094,25.471176470588237
2025-10-20T13:55:49.697762,0.7175572519083969,-0.7709923664122137,-4.541984732824427,0.9361328491210937,0.411802685546875,9.502586389160156,25.56529411764706
2025-10-20T13:55:49.714615,-0.648854961832061,0.9694656488549618,-4.580152671755725,0.48123453369140623,0.9241618408203125,9.081206896972656,25.471176470588237
2025-10-20T13:55:49.731484,1.8396946564885497,-1.5267175572519085,-4.534351145038168,0.9409212524414062,0.21308394775390624,9.598354455566406,25.56529411764706
2025-10-20T13:55:49.748411,0.916030534351145,0.33587786259541985,-4.404580152671755,0.6536170532226562,1.3838485595703125,9.660603698730467,25.61235294117647
2025-10-20T13:55:49.765272,3.0839694656488548,-0.5114503816793893,-4.740458015267175,0.6200982299804687,-0.13646949462890623,9.631873278808593,25.51823529411765
2025-10-20T13:55:49.782198,1.7633587786259541,0.11450381679389313,-4.458015267175573,0.5722141967773438,1.3814543579101561,9.315838659667968,25.56529411764706
2025-10-20T13:55:49.799081,2.6717557251908395,0.1984732824427481,-4.7251908396946565,0.8858546142578124,0.6655880615234374,9.447519750976562,25.56529411764706
2025-10-20T13:55:49.815943,2.33587786259542,-0.21374045801526717,-4.633587786259542,0.23223756103515625,0.7134720947265625,9.085995300292968,25.471176470588237
2025-10-20T13:55:49.832801,2.7404580152671754,-0.2595419847328244,-4.4961832061068705,0.74699091796875,0.22505495605468748,9.509768994140625,25.51823529411765
2025-10-20T13:55:49.849674,2.5572519083969465,-0.648854961832061,-4.3893129770992365,0.5626373901367188,0.8786720092773437,9.404424121093749,25.61235294117647
2025-10-20T13:55:49.866537,2.2977099236641223,0.3816793893129771,-4.427480916030534,0.8212111694335937,0.507570751953125,9.617508068847656,25.51823529411765
2025-10-20T13:55:49.883390,2.0,0.7480916030534351,-4.450381679389313,0.93852705078125,0.6081272216796875,9.464279162597656,25.424117647058825
2025-10-20T13:55:49.900248,1.381679389312977,0.15267175572519084,-4.351145038167939,0.5770026000976562,0.3950432739257812,9.294290844726563,25.51823529411765
2025-10-20T13:55:49.917124,1.9312977099236641,0.0,-4.412213740458015,0.5602431884765625,1.0773907470703123,9.56962403564453,25.51823529411765
2025-10-20T13:55:49.934030,1.9236641221374047,0.0,-4.458015267175573,0.8212111694335937,0.5099649536132812,9.332598071289063,25.56529411764706
2025-10-20T13:55:49.950922,-0.5343511450381679,1.0534351145038168,-4.511450381679389,0.3950432739257812,1.2569558715820313,9.581595043945311,25.56529411764706
2025-10-20T13:55:49.967768,-0.37404580152671757,0.32061068702290074,-4.557251908396947,0.9409212524414062,0.8499415893554687,9.576806640625,25.471176470588237
2025-10-20T13:55:49.984619,-1.5419847328244274,1.7099236641221374,-4.213740458015267,0.48123453369140623,0.8906430175781249,9.473855969238281,25.56529411764706
2025-10-20T13:55:50.001499,-1.6106870229007633,0.8854961832061069,-4.435114503816794,0.49320554199218747,0.6344634399414062,9.591171850585937,25.471176470588237
2025-10-20T13:55:50.018343,-2.4732824427480917,1.3206106870229009,-4.206106870229007,0.507570751953125,0.8020575561523438,9.081206896972656,25.56529411764706
2025-10-20T13:55:50.035180,-3.3893129770992365,1.2366412213740459,-4.2748091603053435,0.6368576416015624,0.27293898925781246,9.423577734375,25.56529411764706
2025-10-20T13:55:50.052008,-3.786259541984733,1.450381679389313,-4.488549618320611,0.6943184814453125,0.74699091796875,9.387664709472656,25.56529411764706
2025-10-20T13:55:50.068845,-4.106870229007634,0.8473282442748091,-4.442748091603053,0.3232172241210937,-0.13168109130859373,9.354145886230468,25.56529411764706
2025-10-20T13:55:50.085683,-5.778625954198473,1.8244274809160306,-4.137404580152672,0.3687070556640625,0.9337386474609375,9.473855969238281,25.56529411764706
2025-10-20T13:55:50.103150,-5.030534351145038,0.8778625954198473,-4.4961832061068705,0.5099649536132812,0.1484405029296875,9.210493786621093,25.61235294117647
2025-10-20T13:55:50.120037,-7.465648854961832,0.7099236641221374,-4.175572519083969,0.8092401611328125,1.3383587280273437,9.595960253906249,25.56529411764706
2025-10-20T13:55:50.136895,-6.66412213740458,0.6564885496183206,-4.442748091603053,0.5674257934570313,0.584185205078125,8.63827958984375,25.471176470588237
2025-10-20T13:55:50.153765,-8.251908396946565,0.42748091603053434,-4.129770992366412,0.9050082275390624,0.7589619262695312,9.540893615722656,25.471176470588237
2025-10-20T13:55:50.170638,-7.351145038167939,0.9541984732824428,-4.374045801526718,0.32082302246093747,0.40222587890625,8.71489404296875,25.377058823529413
2025-10-20T13:55:50.187496,-9.641221374045802,1.916030534351145,-4.061068702290076,0.5770026000976562,0.2609679809570312,9.562441430664062,25.471176470588237
2025-10-20T13:55:50.204356,-8.19083969465649,0.8320610687022901,-4.473282442748092,-0.05746083984375,0.45010991210937495,8.839392529296875,25.56529411764706
2025-10-20T13:55:50.221209,-6.854961832061068,-1.2213740458015268,-4.0534351145038165,0.5889736083984375,0.7038952880859375,8.894459167480468,25.56529411764706
2025-10-20T13:55:50.238057,-7.152671755725191,-0.04580152671755725,-4.33587786259542,0.8283937744140625,0.3399766357421875,9.085995300292968,25.471176470588237
2025-10-20T13:55:50.254929,-6.435114503816794,-2.2290076335877864,-4.320610687022901,0.622492431640625,0.6967126831054687,8.89924757080078,25.51823529411765
2025-10-20T13:55:50.271788,-6.282442748091603,-0.9923664122137404,-4.442748091603053,0.4908113403320312,0.3854664672851562,8.951920007324219,25.51823529411765
2025-10-20T13:55:50.288639,-5.358778625954199,-1.1908396946564885,-4.931297709923665,0.4429273071289062,0.0526724365234375,9.105148913574219,25.51823529411765
2025-10-20T13:55:50.305498,-4.366412213740458,-0.16793893129770993,-4.809160305343512,0.6727706665039062,0.5243301635742187,8.865728747558594,25.51823529411765
2025-10-20T13:55:50.322368,-3.5343511450381677,-1.8015267175572518,-4.816793893129771,0.8571241943359375,0.689530078125,9.53131680908203,25.61235294117647
2025-10-20T13:55:50.339227,-2.282442748091603,-2.1297709923664123,-5.198473282442748,0.5674257934570313,0.7565677246093749,9.234435803222656,25.51823529411765
2025-10-20T13:55:50.356099,-1.3587786259541985,-0.13740458015267176,-5.366412213740458,1.01514150390625,0.18914193115234373,9.49300958251953,25.51823529411765
2025-10-20T13:55:50.372959,-1.3511450381679388,-3.763358778625954,-5.427480916030534,0.13168109130859373,0.3806780639648437,8.750807067871094,25.51823529411765
2025-10-20T13:55:50.389811,-0.10687022900763359,-0.2366412213740458,-5.541984732824427,0.6272808349609375,0.19393033447265623,9.318232861328125,25.56529411764706
2025-10-20T13:55:50.406666,0.3053435114503817,-1.6870229007633588,-5.740458015267175,-0.05746083984375,0.16998831787109375,8.834604125976561,25.471176470588237
2025-10-20T13:55:50.423521,0.11450381679389313,-2.1603053435114505,-5.67175572519084,0.4381389038085937,0.19871873779296872,9.14824454345703,25.56529411764706
2025-10-20T13:55:50.440370,2.2900763358778624,-1.099236641221374,-5.961832061068702,0.37828386230468747,0.737414111328125,8.923189587402343,25.56529411764706
2025-10-20T13:55:50.457288,3.33587786259542,-1.984732824427481,-5.969465648854962,0.7278373046875,0.5027823486328125,9.303867651367186,25.471176470588237
2025-10-20T13:55:50.474169,3.0381679389312977,-1.1450381679389312,-5.9541984732824424,0.5410895751953124,0.2154781494140625,8.949525805664061,25.471176470588237
2025-10-20T13:55:50.491027,3.732824427480916,-1.7251908396946565,-6.061068702290076,0.5291185668945312,0.3016694091796875,9.605537060546874,25.471176470588237
2025-10-20T13:55:50.507894,2.8702290076335877,-0.8244274809160306,-5.938931297709924,0.39983167724609375,0.7422025146484375,8.870517150878905,25.471176470588237
2025-10-20T13:55:50.524768,3.4427480916030535,-1.4809160305343512,-6.206106870229007,0.8882488159179687,0.5793968017578125,10.046070166015625,25.424117647058825
2025-10-20T13:55:50.541623,1.6030534351145038,0.5114503816793893,-6.1679389312977095,0.39264907226562495,1.1875240234375,9.018957653808593,25.51823529411765
2025-10-20T13:55:50.558495,1.702290076335878,1.6717557251908397,-6.129770992366412,1.209071838378906,0.4572925170898437,10.060435375976562,25.424117647058825
2025-10-20T13:55:50.575364,0.8549618320610687,1.0,-5.9541984732824424,0.8786720092773437,1.5275006591796874,9.536105212402344,25.51823529411765
2025-10-20T13:55:50.592218,2.1908396946564888,0.16030534351145037,-6.00763358778626,0.842758984375,0.354341845703125,9.629479077148437,25.51823529411765
2025-10-20T13:55:50.609073,0.31297709923664124,1.6030534351145038,-6.015267175572519,0.8882488159179687,1.1827356201171875,9.871293444824218,25.424117647058825
2025-10-20T13:55:50.625926,0.6717557251908397,0.42748091603053434,-5.854961832061068,1.0007762939453124,0.2825157958984375,8.999804040527343,25.61235294117647
2025-10-20T13:55:50.642834,-0.9694656488549618,3.6106870229007635,-5.8396946564885495,0.7541735229492187,0.9409212524414062,9.955090502929687,25.471176470588237
2025-10-20T13:55:50.659690,-0.42748091603053434,1.4961832061068703,-5.778625954198473,1.197100830078125,0.9457096557617187,9.066841687011719,25.471176470588237
2025-10-20T13:55:50.676544,-2.0,3.8244274809160306,-5.603053435114504,0.5578489868164063,0.8690952026367187,9.988609326171874,25.471176470588237
2025-10-20T13:55:50.693395,-2.595419847328244,2.16793893129771,-5.412213740458015,0.7805097412109374,0.74699091796875,9.200916979980468,25.471176470588237
2025-10-20T13:55:50.710246,-2.6259541984732824,1.5648854961832062,-5.343511450381679,0.8475473876953125,0.30406361083984373,9.222464794921875,25.471176470588237
2025-10-20T13:55:50.727134,-3.480916030534351,1.4351145038167938,-5.1603053435114505,1.0893617553710937,0.5051765502929687,9.689334118652344,25.471176470588237
2025-10-20T13:55:50.744008,-3.6564885496183206,1.7786259541984732,-5.068702290076335,0.30885201416015623,0.08858546142578125,9.069235888671875,25.471176470588237
2025-10-20T13:55:50.760865,-4.519083969465649,3.83206106870229,-4.679389312977099,0.7158662963867187,0.5099649536132812,9.583989245605467,25.51823529411765
2025-10-20T13:55:50.777716,-2.1526717557251906,2.3740458015267176,-4.396946564885496,0.5746083984375,0.488417138671875,8.916006982421875,25.61235294117647
2025-10-20T13:55:50.796457,-4.030534351145038,0.7022900763358778,-4.183206106870229,0.4955997436523437,0.3184288208007812,9.354145886230468,25.471176470588237
2025-10-20T13:55:50.814059,-5.236641221374046,2.282442748091603,-4.068702290076335,0.8403647827148437,1.3766659545898436,9.5001921875,25.56529411764706
2025-10-20T13:55:50.830941,-4.488549618320611,0.16030534351145037,-4.198473282442748,0.7445967163085937,0.8786720092773437,9.169792358398437,25.56529411764706
2025-10-20T13:55:50.847776,-4.198473282442748,1.8396946564885497,-3.8473282442748094,1.2856862915039062,0.8020575561523438,9.660603698730467,25.471176470588237
2025-10-20T13:55:50.864601,-4.656488549618321,0.9770992366412213,-3.7938931297709924,0.6847416748046875,0.5363011718749999,9.215282189941405,25.56529411764706
2025-10-20T13:55:50.881438,-4.3816793893129775,-0.48091603053435117,-3.6030534351145036,0.8643067993164062,0.584185205078125,9.246406811523437,25.56529411764706
2025-10-20T13:55:50.898286,-4.854961832061068,1.6259541984732824,-3.366412213740458,0.5578489868164063,1.0199299072265624,9.4618849609375,25.471176470588237
2025-10-20T13:55:50.915136,-3.5343511450381677,-0.6870229007633588,-3.351145038167939,0.4908113403320312,0.258573779296875,9.64623848876953,25.659411764705883
2025-10-20T13:55:50.932005,-4.480916030534351,1.083969465648855,-3.2748091603053435,0.5410895751953124,1.1013327636718748,9.162609753417968,25.471176470588237
2025-10-20T13:55:50.948878,-2.877862595419847,-0.6870229007633588,-3.3740458015267176,0.86191259765625,-0.3447650390625,9.34696328125,25.659411764705883
2025-10-20T13:55:50.966466,-1.9923664122137406,0.183206106870229,-3.2748091603053435,0.8571241943359375,1.4053963745117186,9.13627353515625,25.56529411764706
2025-10-20T13:55:50.983328,-1.9465648854961832,-0.6641221374045801,-3.2900763358778624,0.7829039428710937,-0.34237083740234375,9.270348828125,25.471176470588237
2025-10-20T13:55:51.000170,-3.0076335877862594,-0.7480916030534351,-3.435114503816794,0.7661445312499999,1.675941162109375,9.105148913574219,25.56529411764706
2025-10-20T13:55:51.017036,-1.3282442748091603,-0.4198473282442748,-3.633587786259542,0.8930372192382812,0.12210428466796874,9.045293872070312,25.56529411764706
2025-10-20T13:55:51.033875,-2.3893129770992365,0.04580152671755725,-3.6259541984732824,0.55545478515625,1.024718310546875,9.248801013183593,25.56529411764706
2025-10-20T13:55:51.050711,-0.6717557251908397,-0.9770992366412213,-3.4198473282442747,0.5817910034179687,0.21068974609375,9.30147344970703,25.471176470588237
2025-10-20T13:55:51.067551,-3.8702290076335877,-1.3358778625954197,-3.4885496183206106,0.5889736083984375,0.45010991210937495,9.514557397460937,25.471176470588237
2025-10-20T13:55:51.084390,-0.22900763358778625,-0.4732824427480916,-3.5419847328244276,0.6967126831054687,0.74699091796875,9.018957653808593,25.471176470588237
2025-10-20T13:55:51.101231,-3.7786259541984735,-1.6412213740458015,-3.6259541984732824,0.8547299926757812,0.09816226806640624,9.49300958251953,25.56529411764706
2025-10-20T13:55:51.118108,-0.06870229007633588,-1.2442748091603053,-3.49618320610687,0.7805097412109374,0.6823474731445313,9.04050546875,25.471176470588237
2025-10-20T13:55:51.134971,-2.1603053435114505,-0.4351145038167939,-3.5267175572519083,0.4285620971679687,0.16519991455078123,9.04050546875,25.424117647058825
2025-10-20T13:55:51.151842,-2.480916030534351,-0.8778625954198473,-3.5801526717557253,0.4644751220703125,0.8643067993164062,9.275137231445312,25.51823529411765
2025-10-20T13:55:51.168701,-1.7251908396946565,-0.5572519083969466,-3.6564885496183206,0.737414111328125,0.55545478515625,9.196128576660156,25.51823529411765
2025-10-20T13:55:51.185554,-1.6106870229007633,-1.1450381679389312,-3.5267175572519083,0.41419688720703124,0.33518823242187495,9.030928662109375,25.51823529411765
2025-10-20T13:55:51.202402,-1.8702290076335877,-0.2824427480916031,-3.49618320610687,0.17477672119140625,0.5626373901367188,8.930372192382812,25.51823529411765
2025-10-20T13:55:51.219263,-0.2595419847328244,-2.267175572519084,-3.480916030534351,0.46208092041015625,0.17477672119140625,9.030928662109375,25.51823529411765
2025-10-20T13:55:51.236113,-1.3969465648854962,0.16030534351145037,-3.4580152671755724,1.2042834350585936,1.1061211669921875,9.246406811523437,25.51823529411765
2025-10-20T13:55:51.252971,0.2595419847328244,-1.534351145038168,-3.572519083969466,0.5339069702148437,0.011971008300781249,9.157821350097656,25.51823529411765
2025-10-20T13:55:51.269830,-1.251908396946565,0.5114503816793893,-3.7480916030534353,0.6272808349609375,0.718260498046875,9.445125549316407,25.51823529411765
2025-10-20T13:55:51.286679,0.24427480916030533,-0.6717557251908397,-3.7480916030534353,1.120486376953125,0.40462008056640625,9.698910925292969,25.51823529411765
2025-10-20T13:55:51.303717,-0.7022900763358778,0.06870229007633588,-5.778625954198473,0.4644751220703125,1.2234370483398436,9.330203869628905,25.51823529411765
2025-10-20T13:55:51.320614,-1.9312977099236641,0.26717557251908397,-3.984732824427481,0.7422025146484375,0.1005564697265625,9.428366137695312,25.51823529411765
2025-10-20T13:55:51.337476,-0.4351145038167939,0.9465648854961832,-3.8396946564885495,0.49799394531249996,0.7972691528320313,9.3086560546875,25.51823529411765
