timestamp,gyro_x,gyro_y,gyro_z,acc_x,acc_y,acc_z,temp
2025-10-20T16:17:06.816677,2.49618320610687,-1.0458015267175573,-0.09923664122137404,0.14125789794921875,0.1388636962890625,9.763554370117188,28.577058823529413
2025-10-20T16:17:06.833847,-2.1526717557251906,-1.3435114503816794,-0.183206106870229,0.21787235107421873,0.0,9.579200842285156,28.718235294117648
2025-10-20T16:17:06.850729,-7.519083969465649,-1.183206106870229,-0.03816793893129771,0.2609679809570312,0.258573779296875,9.694122521972655,28.577058823529413
2025-10-20T16:17:06.867571,-11.900763358778626,-0.45038167938931295,0.3969465648854962,0.22744915771484372,0.11252747802734374,9.583989245605467,28.624117647058824
2025-10-20T16:17:06.884370,-19.259541984732824,-0.08396946564885496,0.5648854961832062,0.32082302246093747,-0.0526724365234375,9.701305126953125,28.577058823529413
2025-10-20T16:17:06.901249,-23.16793893129771,0.2824427480916031,0.31297709923664124,0.2442085693359375,-0.16759411621093748,9.591171850585937,28.53
2025-10-20T16:17:06.918052,-24.72519083969466,0.8549618320610687,0.183206106870229,0.20829554443359374,-0.3399766357421875,9.358934289550781,28.624117647058824
2025-10-20T16:17:06.934842,-24.717557251908396,0.9541984732824428,-0.2748091603053435,0.21068974609375,-0.5626373901367188,9.234435803222656,28.577058823529413
2025-10-20T16:17:06.951640,-24.00763358778626,1.2290076335877862,-0.5114503816793893,0.09337386474609374,-0.8858546142578124,9.0788126953125,28.671176470588236
2025-10-20T16:17:06.968409,-23.129770992366414,1.1908396946564885,-0.8854961832061069,0.16280571289062498,-1.005564697265625,8.992621435546875,28.48294117647059
2025-10-20T16:17:06.985169,-20.114503816793892,0.9770992366412213,-1.2290076335877862,0.11731588134765625,-1.1420341918945311,8.908824377441405,28.577058823529413
2025-10-20T16:17:07.001977,-14.82442748091603,0.6183206106870229,-2.0916030534351147,0.0430956298828125,-1.3670891479492187,8.765172277832031,28.53
2025-10-20T16:17:07.018793,-8.099236641221374,-0.1297709923664122,-2.4427480916030535,0.13407529296874998,-1.4053963745117186,8.700528833007812,28.577058823529413
2025-10-20T16:17:07.035603,-1.0458015267175573,-0.9694656488549618,-3.030534351145038,0.011971008300781249,-1.3910311645507811,8.645462194824217,28.577058823529413
2025-10-20T16:17:07.052413,5.396946564885496,-1.8778625954198473,-3.16793893129771,0.031124621582031248,-1.6711527587890624,8.75320126953125,28.624117647058824
2025-10-20T16:17:07.069223,11.259541984732824,-2.7557251908396947,-3.053435114503817,0.14125789794921875,-1.5107412475585937,8.798691101074219,28.53
2025-10-20T16:17:07.086046,17.0381679389313,-3.877862595419847,-2.9618320610687023,0.016759411621093748,-1.4628572143554686,8.949525805664061,28.577058823529413
2025-10-20T16:17:07.102915,23.213740458015266,-4.198473282442748,-2.732824427480916,0.03591302490234375,-1.2856862915039062,8.875305554199219,28.624117647058824
2025-10-20T16:17:07.119756,28.82442748091603,-4.931297709923665,-2.687022900763359,0.031124621582031248,-1.0702081420898437,9.018957653808593,28.671176470588236
2025-10-20T16:17:07.136692,31.27480916030534,-5.450381679389313,-2.213740458015267,0.11252747802734374,-0.8571241943359375,9.047688073730468,28.53
2025-10-20T16:17:07.153561,35.6793893129771,-5.511450381679389,-1.702290076335878,0.11013327636718749,-0.5339069702148437,9.239224206542968,28.577058823529413
2025-10-20T16:17:07.170390,37.0,-5.404580152671755,-1.717557251908397,0.22026655273437498,-0.4644751220703125,9.272743029785156,28.624117647058824
2025-10-20T16:17:07.187614,38.13740458015267,-5.175572519083969,-1.366412213740458,0.2825157958984375,-0.42377369384765623,9.303867651367186,28.53
2025-10-20T16:17:07.204521,38.83969465648855,-4.32824427480916,-1.083969465648855,0.3711012573242187,-0.05746083984375,9.344569079589844,28.624117647058824
2025-10-20T16:17:07.221339,37.19083969465649,-4.0458015267175576,-0.6793893129770993,0.2537853759765625,0.3136404174804687,9.440337145996093,28.624117647058824
2025-10-20T16:17:07.238142,33.47328244274809,-3.49618320610687,-0.3282442748091603,0.239420166015625,0.6344634399414062,9.804255798339844,28.577058823529413
2025-10-20T16:17:07.254939,27.977099236641223,-2.8473282442748094,-1.9541984732824427,0.41419688720703124,0.7805097412109374,9.952696301269532,28.48294117647059
2025-10-20T16:17:07.271745,22.80916030534351,-2.2442748091603053,0.32061068702290074,0.3184288208007812,0.7781155395507812,9.823409411621093,28.624117647058824
2025-10-20T16:17:07.288545,17.603053435114504,-1.8015267175572518,0.8244274809160306,0.3136404174804687,0.6775590698242188,9.749189160156249,28.577058823529413
2025-10-20T16:17:07.305367,12.48091603053435,-1.4809160305343512,1.1297709923664123,0.3758896606445312,0.5123591552734374,9.710881933593749,28.577058823529413
2025-10-20T16:17:07.322184,7.0534351145038165,-1.0381679389312977,1.4961832061068703,0.354341845703125,0.354341845703125,9.830592016601562,28.624117647058824
2025-10-20T16:17:07.338993,1.16793893129771,-0.2824427480916031,2.183206106870229,0.3399766357421875,0.5099649536132812,9.871293444824218,28.671176470588236
2025-10-20T16:17:07.355799,-4.358778625954199,0.8396946564885496,2.3740458015267176,0.2537853759765625,0.47165772705078124,10.04846436767578,28.577058823529413
2025-10-20T16:17:07.372607,-8.816793893129772,0.6717557251908397,2.732824427480916,0.14125789794921875,0.32082302246093747,9.670180505371093,28.53
2025-10-20T16:17:07.389414,-11.251908396946565,1.3893129770992367,2.572519083969466,-0.11252747802734374,0.09816226806640624,9.56962403564453,28.624117647058824
2025-10-20T16:17:07.406294,-12.038167938931299,1.6870229007633588,2.49618320610687,-0.1580173095703125,0.0383072265625,9.205705383300781,28.577058823529413
2025-10-20T16:17:07.423391,-12.076335877862595,1.5954198473282444,2.2519083969465647,-0.1388636962890625,-0.20350714111328125,9.423577734375,28.53
2025-10-20T16:17:07.440262,-11.946564885496183,1.549618320610687,1.9694656488549618,-0.21068974609375,-0.3711012573242187,9.318232861328125,28.53
2025-10-20T16:17:07.457083,-10.48091603053435,1.7328244274809161,1.5190839694656488,-0.2442085693359375,-0.47644613037109373,9.277531433105468,28.624117647058824
2025-10-20T16:17:07.473925,-7.656488549618321,1.900763358778626,0.9618320610687023,-0.33758243408203126,-0.6703764648437499,9.035717065429687,28.577058823529413
2025-10-20T16:17:07.490743,-2.946564885496183,1.4274809160305344,0.31297709923664124,-0.23702596435546874,-0.51714755859375,8.978256225585938,28.624117647058824
2025-10-20T16:17:07.507592,1.8549618320610688,0.9923664122137404,-0.4580152671755725,-0.239420166015625,-0.55545478515625,8.916006982421875,28.671176470588236
2025-10-20T16:17:07.524432,6.641221374045801,0.648854961832061,-1.0381679389312977,-0.09576806640624999,-0.6009446166992187,9.028534460449219,28.671176470588236
2025-10-20T16:17:07.541307,10.82442748091603,0.1984732824427481,-1.7404580152671756,-0.09337386474609374,-0.5578489868164063,9.145850341796875,28.624117647058824
2025-10-20T16:17:07.558142,14.396946564885496,-0.24427480916030533,-0.030534351145038167,-0.00239420166015625,-0.3591302490234375,9.117119921875,28.577058823529413
2025-10-20T16:17:07.574954,17.931297709923665,-1.0610687022900764,-2.3053435114503817,-0.0718260498046875,-0.09576806640624999,9.179369165039063,28.577058823529413
2025-10-20T16:17:07.591786,21.3206106870229,-1.5038167938931297,-2.7557251908396947,-0.033518823242187495,0.09337386474609374,9.191340173339842,28.671176470588236
2025-10-20T16:17:07.608608,24.19083969465649,-1.9541984732824427,-2.8396946564885495,-0.12210428466796874,0.36391865234375,9.289502441406249,28.577058823529413
2025-10-20T16:17:07.625415,25.50381679389313,-2.114503816793893,-2.4122137404580153,0.2657563842773437,0.699106884765625,9.356540087890625,28.624117647058824
2025-10-20T16:17:07.642228,24.85496183206107,-2.015267175572519,-1.8778625954198473,0.39743747558593745,0.7876923461914062,9.193734375,28.624117647058824
2025-10-20T16:17:07.659136,23.099236641221374,-1.7328244274809161,-1.1068702290076335,0.40940848388671874,0.93852705078125,9.433154541015625,28.624117647058824
2025-10-20T16:17:07.675973,20.671755725190838,-0.9847328244274809,-0.5038167938931297,0.3399766357421875,1.0558429321289062,9.26316622314453,28.577058823529413
2025-10-20T16:17:07.692883,17.87786259541985,-0.5267175572519084,-0.29770992366412213,0.4429273071289062,1.2210428466796874,9.495403784179686,28.435882352941178
2025-10-20T16:17:07.709784,14.412213740458014,0.3282442748091603,-0.24427480916030533,0.6871358764648438,1.637633935546875,9.442731347656249,28.577058823529413
2025-10-20T16:17:07.726607,9.259541984732824,1.083969465648855,-0.5114503816793893,0.7398083129882812,1.6256629272460936,9.526528405761718,28.624117647058824
2025-10-20T16:17:07.743417,2.0916030534351147,1.9618320610687023,-0.11450381679389313,0.8690952026367187,1.8555062866210936,9.524134204101562,28.624117647058824
2025-10-20T16:17:07.760285,-5.763358778625954,2.3053435114503817,-0.06870229007633588,0.7637503295898437,1.7812860351562498,9.68454571533203,28.577058823529413
2025-10-20T16:17:07.777117,-13.648854961832061,2.8931297709923665,0.17557251908396945,0.612915625,1.6041151123046875,9.689334118652344,28.624117647058824
2025-10-20T16:17:07.795943,-17.61832061068702,3.6106870229007635,-0.1450381679389313,0.5722141967773438,1.2282254516601563,9.600748657226562,28.577058823529413
2025-10-20T16:17:07.812883,-24.14503816793893,3.6412213740458017,-0.03816793893129771,0.5626373901367188,1.0319009155273438,9.579200842285156,28.577058823529413
2025-10-20T16:17:07.829724,-25.587786259541986,3.877862595419847,-0.015267175572519083,0.5219359619140624,0.8164227661132812,9.478644372558593,28.624117647058824
2025-10-20T16:17:07.846526,-30.908396946564885,4.343511450381679,0.2900763358778626,0.49320554199218747,0.6727706665039062,9.483432775878907,28.624117647058824
2025-10-20T16:17:07.863316,-33.786259541984734,4.450381679389313,0.8473282442748091,0.5410895751953124,0.5410895751953124,9.41639512939453,28.671176470588236
2025-10-20T16:17:07.880124,-34.969465648854964,4.656488549618321,1.183206106870229,0.5434837768554687,0.2346317626953125,9.373299499511718,28.577058823529413
2025-10-20T16:17:07.896917,-34.51145038167939,4.541984732824427,1.6793893129770991,0.3758896606445312,0.055066638183593745,9.258377819824219,28.48294117647059
2025-10-20T16:17:07.913742,-32.58015267175573,4.145038167938932,1.8931297709923665,0.35194764404296874,-0.105344873046875,9.069235888671875,28.53
2025-10-20T16:17:07.930553,-30.358778625954198,4.068702290076335,2.4122137404580153,0.39743747558593745,-0.1484405029296875,9.162609753417968,28.48294117647059
2025-10-20T16:17:07.947360,-28.206106870229007,4.061068702290076,2.6946564885496183,0.3591302490234375,-0.08858546142578125,9.227253198242186,28.671176470588236
2025-10-20T16:17:07.964162,-26.099236641221374,3.4656488549618323,2.954198473282443,0.27293898925781246,-0.055066638183593745,9.284714038085937,28.53
2025-10-20T16:17:07.980990,-23.580152671755727,3.3282442748091605,3.145038167938931,0.17238251953125,-0.14604630126953125,9.062053283691405,28.577058823529413
2025-10-20T16:17:07.997799,-19.770992366412212,2.7709923664122136,3.1297709923664123,0.16519991455078123,-0.22026655273437498,9.191340173339842,28.671176470588236
2025-10-20T16:17:08.014778,-15.427480916030534,1.83206106870229,3.1068702290076335,0.0383072265625,-0.25139117431640623,9.009380847167968,28.671176470588236
2025-10-20T16:17:08.031606,-11.16793893129771,1.6030534351145038,2.931297709923664,0.023942016601562498,-0.38786066894531246,9.045293872070312,28.624117647058824
2025-10-20T16:17:08.048457,-6.877862595419847,0.9923664122137404,2.7480916030534353,-0.00239420166015625,-0.4860229370117187,9.028534460449219,28.671176470588236
2025-10-20T16:17:08.065287,-2.763358778625954,0.22137404580152673,2.732824427480916,-0.00718260498046875,-0.6153098266601562,9.0788126953125,28.577058823529413
2025-10-20T16:17:08.082098,1.8244274809160306,-0.6030534351145038,2.50381679389313,0.0383072265625,-0.565031591796875,9.04050546875,28.53
2025-10-20T16:17:08.098910,6.67175572519084,-1.2290076335877862,3.8931297709923665,-0.10773907470703124,-0.7398083129882812,8.911218579101561,28.577058823529413
2025-10-20T16:17:08.115736,11.221374045801527,-2.1068702290076335,1.7938931297709924,-0.00239420166015625,-0.7637503295898437,9.023746057128905,28.624117647058824
2025-10-20T16:17:08.132567,15.557251908396946,-2.519083969465649,1.5267175572519085,-0.2059013427734375,-0.4908113403320312,9.064447485351561,28.624117647058824
2025-10-20T16:17:08.149380,19.31297709923664,-3.122137404580153,1.1908396946564885,-0.09816226806640624,-0.44053310546874996,9.050082275390624,28.577058823529413
2025-10-20T16:17:08.166190,21.358778625954198,-3.3282442748091605,1.099236641221374,0.033518823242187495,0.031124621582031248,9.160215551757812,28.624117647058824
2025-10-20T16:17:08.183000,21.68702290076336,-3.2290076335877864,1.2595419847328244,0.18914193115234373,0.3902548706054687,9.217676391601563,28.53
2025-10-20T16:17:08.200018,20.564885496183205,-3.404580152671756,1.2748091603053435,0.05746083984375,0.5985504150390625,9.425971936035156,28.53
2025-10-20T16:17:08.216896,18.27480916030534,-2.885496183206107,1.0916030534351144,0.03591302490234375,0.7757213378906249,9.624690673828125,28.577058823529413
2025-10-20T16:17:08.233725,15.045801526717558,-2.5419847328244276,1.1297709923664123,-0.143652099609375,0.82360537109375,9.737218151855469,28.53
2025-10-20T16:17:08.250528,10.67175572519084,-2.0229007633587788,1.0229007633587786,0.023942016601562498,0.7900865478515624,9.677363110351562,28.577058823529413
2025-10-20T16:17:08.267340,5.763358778625954,-1.4274809160305344,1.0916030534351144,0.19871873779296872,0.7900865478515624,9.603142858886718,28.577058823529413
2025-10-20T16:17:08.284146,0.9923664122137404,-1.0610687022900764,0.9236641221374046,0.5291185668945312,0.622492431640625,9.7683427734375,28.624117647058824
2025-10-20T16:17:08.300971,-1.9923664122137406,-0.3282442748091603,0.7938931297709924,0.3112462158203125,0.6871358764648438,9.727641345214844,28.671176470588236
2025-10-20T16:17:08.317790,-9.34351145038168,0.11450381679389313,0.5648854961832062,0.5219359619140624,0.5195417602539062,9.947907897949218,28.671176470588236
2025-10-20T16:17:08.334601,-14.305343511450381,0.6183206106870229,0.9083969465648855,0.5817910034179687,0.19632453613281248,9.725247143554688,28.624117647058824
2025-10-20T16:17:08.351412,-18.702290076335878,0.8702290076335878,1.2290076335877862,0.5985504150390625,0.2059013427734375,9.6917283203125,28.671176470588236
2025-10-20T16:17:08.368221,-22.14503816793893,1.6030534351145038,1.4809160305343512,0.46686932373046874,-0.06464344482421874,9.380482104492186,28.671176470588236
2025-10-20T16:17:08.385035,-23.977099236641223,1.717557251908397,1.4961832061068703,0.5003881469726562,-0.23223756103515625,9.392453112792968,28.624117647058824
2025-10-20T16:17:08.401845,-24.0381679389313,2.0076335877862594,1.1984732824427482,0.3758896606445312,-0.43574470214843747,9.327809667968749,28.624117647058824
2025-10-20T16:17:08.418702,-22.946564885496183,2.3587786259541983,0.9923664122137404,0.29927520751953124,-0.6105214233398437,9.220070593261719,28.577058823529413
2025-10-20T16:17:08.435572,-21.374045801526716,2.450381679389313,0.5572519083969466,0.2753331909179687,-0.7541735229492187,9.126696728515624,28.624117647058824
2025-10-20T16:17:08.452419,-18.587786259541986,2.33587786259542,0.183206106870229,0.18435352783203124,-0.8714894042968749,9.112331518554686,28.577058823529413
2025-10-20T16:17:08.469257,-15.274809160305344,2.122137404580153,-0.25190839694656486,0.00239420166015625,-0.9552864624023437,8.959102612304687,28.624117647058824
2025-10-20T16:17:08.486070,-10.19083969465649,1.8396946564885497,-1.1755725190839694,0.1005564697265625,-1.0414777221679687,8.904035974121093,28.671176470588236
2025-10-20T16:17:08.503072,-4.847328244274809,1.5038167938931297,-1.9465648854961832,0.105344873046875,-0.7613561279296874,8.978256225585938,28.577058823529413
2025-10-20T16:17:08.519934,0.5954198473282443,0.9312977099236641,-2.5419847328244276,0.1580173095703125,-0.5339069702148437,8.98304462890625,28.624117647058824
2025-10-20T16:17:08.536752,4.763358778625954,0.3893129770992366,-2.7480916030534353,0.15562310791015624,-0.143652099609375,8.947131604003905,28.624117647058824
2025-10-20T16:17:08.553664,8.595419847328245,-0.11450381679389313,-3.4427480916030535,0.15562310791015624,0.08379705810546874,8.963891015625,28.577058823529413
2025-10-20T16:17:08.570502,12.198473282442748,-0.10687022900763359,-3.7099236641221376,0.15562310791015624,0.29927520751953124,8.949525805664061,28.624117647058824
2025-10-20T16:17:08.587320,16.404580152671755,-0.8396946564885496,-4.1603053435114505,0.277727392578125,0.13646949462890623,8.80347950439453,28.577058823529413
2025-10-20T16:17:08.604151,20.442748091603054,-1.1374045801526718,-4.435114503816794,0.2346317626953125,-0.03591302490234375,8.971073620605468,28.53
2025-10-20T16:17:08.621955,23.52671755725191,-1.6564885496183206,-4.374045801526718,0.2825157958984375,-0.0047884033203125,9.105148913574219,28.624117647058824
2025-10-20T16:17:08.638793,24.83206106870229,-2.015267175572519,-4.038167938931298,0.09816226806640624,0.20350714111328125,9.220070593261719,28.577058823529413
2025-10-20T16:17:08.655634,24.236641221374047,-2.4122137404580153,-3.5267175572519083,-0.028730419921875,0.3112462158203125,9.272743029785156,28.624117647058824
2025-10-20T16:17:08.672466,22.96946564885496,-2.6946564885496183,-3.2748091603053435,-0.06703764648437499,0.7445967163085937,9.344569079589844,28.577058823529413
2025-10-20T16:17:08.689276,23.419847328244273,-3.0839694656488548,-3.213740458015267,-0.023942016601562498,1.0582371337890624,9.366116894531249,28.577058823529413
2025-10-20T16:17:08.706124,19.83969465648855,-2.931297709923664,-2.7938931297709924,-0.1292868896484375,1.0271125122070313,9.399635717773437,28.624117647058824
2025-10-20T16:17:08.722950,17.267175572519083,-3.0610687022900764,-2.3053435114503817,0.00718260498046875,1.0103531005859374,9.53131680908203,28.577058823529413
2025-10-20T16:17:08.739754,13.564885496183207,-2.9083969465648853,-1.5190839694656488,0.10773907470703124,1.0869675537109373,9.572018237304688,28.577058823529413
2025-10-20T16:17:08.756560,9.511450381679388,-2.480916030534351,-0.8854961832061069,0.2753331909179687,0.9744400756835937,9.619902270507811,28.671176470588236
2025-10-20T16:17:08.773363,5.969465648854962,-2.015267175572519,-0.40458015267175573,0.430956298828125,0.718260498046875,9.533711010742186,28.53
2025-10-20T16:17:08.790201,3.519083969465649,-1.5419847328244274,-0.09923664122137404,0.4955997436523437,0.699106884765625,9.375693701171874,28.671176470588236
2025-10-20T16:17:08.807279,1.4351145038167938,-1.16793893129771,-0.03816793893129771,0.7900865478515624,0.6727706665039062,9.5001921875,28.577058823529413
2025-10-20T16:17:08.824176,-1.3511450381679388,-0.5801526717557252,0.10687022900763359,0.7733271362304687,0.6943184814453125,9.504980590820312,28.577058823529413
2025-10-20T16:17:08.841043,-4.732824427480916,-0.22137404580152673,0.5343511450381679,0.5243301635742187,0.7565677246093749,9.72285294189453,28.53
2025-10-20T16:17:08.857883,-8.053435114503817,0.2824427480916031,0.6946564885496184,0.55545478515625,0.6655880615234374,9.70369932861328,28.624117647058824
2025-10-20T16:17:08.875308,-10.603053435114504,0.816793893129771,0.8549618320610687,0.603338818359375,0.39264907226562495,9.526528405761718,28.53
2025-10-20T16:17:08.892143,-11.86259541984733,0.9618320610687023,0.7022900763358778,0.718260498046875,0.3064578125,9.533711010742186,28.671176470588236
2025-10-20T16:17:08.908948,-12.549618320610687,1.450381679389313,0.3816793893129771,0.7541735229492187,0.19153613281249998,9.469067565917967,28.671176470588236
2025-10-20T16:17:08.925763,-12.755725190839694,1.6717557251908397,0.33587786259541985,0.8020575561523438,0.09816226806640624,9.639055883789062,28.624117647058824
2025-10-20T16:17:08.942566,-13.076335877862595,1.8702290076335877,-0.022900763358778626,0.44053310546874996,0.0430956298828125,9.521740002441407,28.53
2025-10-20T16:17:08.959380,-12.86259541984733,2.0229007633587788,-0.48091603053435117,0.4165910888671875,-0.033518823242187495,9.53131680908203,28.577058823529413
2025-10-20T16:17:08.976188,-12.030534351145038,0.03816793893129771,-1.0076335877862594,0.36152445068359373,0.02154781494140625,9.399635717773437,28.577058823529413
2025-10-20T16:17:08.992995,-10.557251908396946,2.030534351145038,-1.8244274809160306,0.37828386230468747,0.0718260498046875,9.334992272949219,28.577058823529413
2025-10-20T16:17:09.009810,-8.908396946564885,2.0076335877862594,-2.6717557251908395,0.3064578125,0.13646949462890623,9.344569079589844,28.53
2025-10-20T16:17:09.026640,-7.99236641221374,2.427480916030534,-3.145038167938931,0.38786066894531246,0.17238251953125,9.3086560546875,28.577058823529413
2025-10-20T16:17:09.043475,-7.183206106870229,2.4580152671755724,-3.717557251908397,0.26815058593749996,0.258573779296875,9.37808790283203,28.624117647058824
2025-10-20T16:17:09.060316,-6.33587786259542,2.236641221374046,-4.374045801526718,0.11731588134765625,0.2442085693359375,9.313444458007812,28.53
2025-10-20T16:17:09.077123,-4.763358778625954,2.282442748091603,-4.877862595419847,-0.01915361328125,0.06943184814453125,9.133879333496093,28.48294117647059
2025-10-20T16:17:09.093929,-2.2900763358778624,2.0,-5.2748091603053435,0.0,0.086191259765625,9.07163009033203,28.48294117647059
2025-10-20T16:17:09.110730,-0.17557251908396945,1.7786259541984732,-5.450381679389313,0.040701428222656245,0.016759411621093748,9.124302526855468,28.624117647058824
2025-10-20T16:17:09.127544,1.5190839694656488,1.5877862595419847,-5.450381679389313,0.08858546142578125,0.01915361328125,9.318232861328125,28.624117647058824
2025-10-20T16:17:09.144348,2.053435114503817,1.366412213740458,-5.0534351145038165,0.011971008300781249,0.25139117431640623,9.222464794921875,28.577058823529413
2025-10-20T16:17:09.161152,1.9541984732824427,0.7633587786259542,-4.694656488549619,0.20350714111328125,0.4955997436523437,9.33978067626953,28.76529411764706
2025-10-20T16:17:09.177954,1.4580152671755726,0.7404580152671756,-4.259541984732825,0.17477672119140625,0.6464344482421874,9.361328491210937,28.53
2025-10-20T16:17:09.194756,0.8015267175572519,0.33587786259541985,-3.6946564885496183,0.1771709228515625,0.6560112548828124,9.272743029785156,28.53
2025-10-20T16:17:09.211560,-0.06870229007633588,0.1984732824427481,-3.198473282442748,0.028730419921875,0.584185205078125,9.265560424804686,28.671176470588236
2025-10-20T16:17:09.228367,-2.267175572519084,-0.13740458015267176,-2.3282442748091605,0.06464344482421874,0.55545478515625,9.404424121093749,28.671176470588236
2025-10-20T16:17:09.245179,-5.4961832061068705,1.9465648854961832,-1.4274809160305344,0.062249243164062495,0.59376201171875,9.368511096191405,28.577058823529413
2025-10-20T16:17:09.261983,-9.16793893129771,1.916030534351145,-0.549618320610687,0.1484405029296875,0.70868369140625,9.483432775878907,28.624117647058824
2025-10-20T16:17:09.278786,-12.793893129770993,0.12213740458015267,0.07633587786259542,0.2825157958984375,0.8690952026367187,9.425971936035156,28.48294117647059
2025-10-20T16:17:09.295591,-15.709923664122137,0.35877862595419846,0.4732824427480916,0.34237083740234375,1.0414777221679687,9.445125549316407,28.577058823529413
2025-10-20T16:17:09.312393,-19.27480916030534,0.732824427480916,1.0076335877862594,0.296881005859375,1.01514150390625,9.387664709472656,28.624117647058824
2025-10-20T16:17:09.329198,-22.82442748091603,0.8244274809160306,1.4351145038167938,0.2537853759765625,0.9840168823242187,9.440337145996093,28.624117647058824
2025-10-20T16:17:09.346090,-26.900763358778626,1.2900763358778626,1.8396946564885497,0.15322890625,0.9169792358398436,9.629479077148437,28.577058823529413
2025-10-20T16:17:09.362943,-30.099236641221374,1.4732824427480915,0.030534351145038167,0.24899697265624998,0.4908113403320312,9.411606726074218,28.624117647058824
2025-10-20T16:17:09.379766,-33.213740458015266,1.5419847328244274,1.83206106870229,0.2657563842773437,0.2154781494140625,9.229647399902344,28.577058823529413
2025-10-20T16:17:09.396605,-30.51145038167939,1.534351145038168,1.381679389312977,0.19871873779296872,-0.05746083984375,9.095572106933593,28.577058823529413
2025-10-20T16:17:09.413515,-28.435114503816795,1.6564885496183206,0.9541984732824428,0.16759411621093748,-0.30885201416015623,9.064447485351561,28.577058823529413
2025-10-20T16:17:09.430347,-25.85496183206107,0.8625954198473282,0.31297709923664124,0.13168109130859373,-0.41419688720703124,9.143456140136719,28.577058823529413
2025-10-20T16:17:09.447190,-22.96946564885496,0.7404580152671756,-0.24427480916030533,0.14125789794921875,-0.7230489013671875,9.124302526855468,28.53
2025-10-20T16:17:09.464007,-18.9618320610687,0.6106870229007634,-0.7709923664122137,0.1005564697265625,-0.9552864624023437,8.920795385742187,28.671176470588236
2025-10-20T16:17:09.481605,-13.86259541984733,0.0916030534351145,-1.282442748091603,0.09337386474609374,-1.1731588134765625,8.82981572265625,28.577058823529413
2025-10-20T16:17:09.498462,-6.931297709923665,-0.3969465648854962,-2.16793893129771,0.09816226806640624,-1.235408056640625,8.743624462890624,28.624117647058824
2025-10-20T16:17:09.515286,-0.06870229007633588,-0.8473282442748091,-2.687022900763359,0.05027823486328125,-1.4341267944335936,8.724470849609375,28.577058823529413
2025-10-20T16:17:09.532123,6.694656488549619,-1.213740458015267,-3.3435114503816794,-0.14604630126953125,-1.5227122558593749,8.882488159179687,28.718235294117648
2025-10-20T16:17:09.548932,12.725190839694656,-1.5877862595419847,-3.6564885496183206,-0.08140285644531249,-1.2306196533203124,8.935160595703124,28.624117647058824
2025-10-20T16:17:09.565739,18.404580152671755,-1.9541984732824427,-4.068702290076335,-0.023942016601562498,-0.9696516723632812,8.913612780761719,28.577058823529413
2025-10-20T16:17:09.582551,23.068702290076335,-2.0381679389312977,-4.442748091603053,0.06464344482421874,-0.6584054565429687,8.990227233886719,28.577058823529413
2025-10-20T16:17:09.599355,27.15267175572519,-2.49618320610687,-4.656488549618321,0.16998831787109375,-0.32561142578124996,9.064447485351561,28.624117647058824
2025-10-20T16:17:09.616160,29.31297709923664,-2.6030534351145036,-4.633587786259542,0.19632453613281248,-0.21068974609375,9.342174877929686,28.718235294117648
2025-10-20T16:17:09.632972,29.610687022900763,-2.8244274809160306,-4.1679389312977095,0.0718260498046875,-0.028730419921875,9.363722692871093,28.671176470588236
2025-10-20T16:17:09.649778,28.0,-2.648854961832061,-3.7251908396946565,0.0143652099609375,0.040701428222656245,9.373299499511718,28.577058823529413
2025-10-20T16:17:09.666588,25.84732824427481,-2.145038167938931,-3.1755725190839694,-0.10295067138671875,0.2442085693359375,9.533711010742186,28.624117647058824
2025-10-20T16:17:09.683392,23.0,-2.0763358778625953,-2.572519083969466,-0.05027823486328125,0.40462008056640625,9.598354455566406,28.671176470588236
2025-10-20T16:17:09.700194,19.793893129770993,-1.9465648854961832,-2.145038167938931,-0.011971008300781249,0.5099649536132812,9.648632690429688,28.671176470588236
2025-10-20T16:17:09.716996,15.885496183206106,-1.549618320610687,-1.6564885496183206,0.0430956298828125,0.5722141967773438,9.682151513671874,28.671176470588236
2025-10-20T16:17:09.733961,10.900763358778626,-1.0076335877862594,-0.5725190839694656,0.21787235107421873,0.7038952880859375,9.813832604980469,28.671176470588236
2025-10-20T16:17:09.750792,5.656488549618321,-0.4961832061068702,-1.916030534351145,0.00239420166015625,0.45968671875,9.794678991699218,28.624117647058824
2025-10-20T16:17:09.767599,1.015267175572519,0.31297709923664124,0.7709923664122137,0.01915361328125,0.5698199951171875,9.560047229003906,28.577058823529413
2025-10-20T16:17:09.784405,-2.183206106870229,0.6183206106870229,1.3511450381679388,0.04548983154296875,0.3184288208007812,9.356540087890625,28.577058823529413
2025-10-20T16:17:09.801215,-4.3893129770992365,1.0916030534351144,1.8091603053435115,0.05746083984375,0.40940848388671874,9.457096557617186,28.624117647058824
2025-10-20T16:17:09.818023,-6.0458015267175576,1.6030534351145038,2.236641221374046,0.06943184814453125,0.40222587890625,9.586383447265625,28.624117647058824
2025-10-20T16:17:09.834855,-7.1679389312977095,1.7938931297709924,2.6030534351145036,0.1388636962890625,0.36152445068359373,9.591171850585937,28.48294117647059
2025-10-20T16:17:09.851659,-5.923664122137405,1.8854961832061068,2.954198473282443,0.1867477294921875,0.2825157958984375,9.361328491210937,28.53
2025-10-20T16:17:09.868461,-7.702290076335878,1.8778625954198473,3.045801526717557,0.18914193115234373,0.3016694091796875,9.260772021484375,28.624117647058824
2025-10-20T16:17:09.885269,-6.122137404580153,1.83206106870229,3.0916030534351147,0.1197100830078125,0.17956512451171874,9.210493786621093,28.48294117647059
2025-10-20T16:17:09.902082,-3.7557251908396947,1.748091603053435,2.969465648854962,0.1149216796875,0.181959326171875,9.251195214843749,28.671176470588236
2025-10-20T16:17:09.918895,-1.465648854961832,1.4961832061068703,2.5801526717557253,0.2442085693359375,0.2825157958984375,9.18655177001953,28.48294117647059
2025-10-20T16:17:09.935713,1.1450381679389312,1.183206106870229,2.549618320610687,0.15322890625,0.17477672119140625,9.241618408203124,28.53
2025-10-20T16:17:09.952519,3.9389312977099236,1.3893129770992367,2.1908396946564888,0.4381389038085937,0.25139117431640623,9.260772021484375,28.577058823529413
2025-10-20T16:17:09.969334,7.0458015267175576,0.9618320610687023,1.8625954198473282,0.16998831787109375,0.2154781494140625,9.14824454345703,28.624117647058824
2025-10-20T16:17:09.986145,10.870229007633588,0.8625954198473282,1.4580152671755726,0.24899697265624998,0.28730419921875,9.13627353515625,28.624117647058824
2025-10-20T16:17:10.003441,14.702290076335878,0.6564885496183206,0.6412213740458015,0.28490999755859375,0.2609679809570312,9.234435803222656,28.577058823529413
2025-10-20T16:17:10.023305,17.9618320610687,0.6106870229007634,0.4122137404580153,0.26815058593749996,0.3280056274414062,9.205705383300781,28.671176470588236
2025-10-20T16:17:10.042553,21.33587786259542,0.31297709923664124,-0.10687022900763359,0.3327940307617187,0.43574470214843747,9.124302526855468,28.624117647058824
2025-10-20T16:17:10.059450,24.061068702290076,0.06870229007633588,-0.3969465648854962,0.4381389038085937,0.507570751953125,9.100360510253905,28.624117647058824
2025-10-20T16:17:10.076301,26.259541984732824,-0.32061068702290074,-1.1297709923664123,0.3495534423828125,0.6536170532226562,9.083601098632812,28.624117647058824
2025-10-20T16:17:10.093120,28.12213740458015,-0.3816793893129771,-1.5572519083969465,0.35194764404296874,0.7637503295898437,9.17458076171875,28.577058823529413
2025-10-20T16:17:10.109920,29.66412213740458,-0.732824427480916,-0.05343511450381679,0.4525041137695312,0.8954314208984374,9.227253198242186,28.577058823529413
2025-10-20T16:17:10.126766,29.96946564885496,-0.7557251908396947,-2.2595419847328246,0.5602431884765625,0.9265560424804687,9.191340173339842,28.624117647058824
2025-10-20T16:17:10.143573,29.763358778625953,-0.8854961832061069,-2.885496183206107,0.6081272216796875,1.0438719238281249,9.150638745117186,28.577058823529413
2025-10-20T16:17:10.160364,28.908396946564885,-1.0687022900763359,-2.8702290076335877,0.5195417602539062,1.16837041015625,9.141061938476563,28.577058823529413
2025-10-20T16:17:10.177167,27.358778625954198,-1.1374045801526718,-3.099236641221374,0.5434837768554687,1.3192051147460937,9.227253198242186,28.624117647058824
2025-10-20T16:17:10.194020,25.34351145038168,-1.1145038167938932,-3.2519083969465647,0.5793968017578125,1.4341267944335936,9.193734375,28.577058823529413
2025-10-20T16:17:10.210853,22.34351145038168,-0.9236641221374046,-3.3053435114503817,0.612915625,1.659181750488281,9.066841687011719,28.577058823529413
2025-10-20T16:17:10.227646,18.427480916030536,-0.6183206106870229,-3.0381679389312977,0.5386953735351562,1.675941162109375,9.066841687011719,28.624117647058824
2025-10-20T16:17:10.244490,14.488549618320612,-0.48091603053435117,-2.877862595419847,0.4908113403320312,1.5418658691406248,9.217676391601563,28.671176470588236
2025-10-20T16:17:10.261317,10.038167938931299,-0.183206106870229,-2.549618320610687,0.4429273071289062,1.465251416015625,9.260772021484375,28.577058823529413
2025-10-20T16:17:10.278190,5.549618320610687,0.06870229007633588,-2.1297709923664123,0.3447650390625,1.5131354492187499,9.325415466308593,28.624117647058824
2025-10-20T16:17:10.295021,3.8702290076335877,0.31297709923664124,-3.885496183206107,0.36391865234375,1.4604630126953124,9.150638745117186,28.577058823529413
2025-10-20T16:17:10.311840,-1.2213740458015268,0.8396946564885496,-1.717557251908397,0.3232172241210937,1.426944189453125,9.349357482910156,28.48294117647059
2025-10-20T16:17:10.328647,-3.8625954198473282,0.732824427480916,-1.3587786259541985,0.45010991210937495,1.3623007446289062,9.227253198242186,28.624117647058824
2025-10-20T16:17:10.345509,-5.916030534351145,0.7557251908396947,-1.1374045801526718,0.18914193115234373,1.4030021728515625,9.306261853027344,28.577058823529413
2025-10-20T16:17:10.362369,-5.908396946564886,0.7099236641221374,-0.7480916030534351,0.3136404174804687,1.2808978881835937,9.143456140136719,28.624117647058824
2025-10-20T16:17:10.379201,-8.709923664122137,0.6259541984732825,-0.6106870229007634,0.26815058593749996,1.3000515014648437,9.196128576660156,28.577058823529413
2025-10-20T16:17:10.396014,-8.534351145038167,0.3053435114503817,-0.5038167938931297,0.24660277099609373,1.20667763671875,9.287108239746093,28.671176470588236
2025-10-20T16:17:10.412852,-7.694656488549619,0.13740458015267176,-0.4961832061068702,0.20350714111328125,1.139639990234375,9.272743029785156,28.53
2025-10-20T16:17:10.429674,-6.236641221374046,-0.2366412213740458,-0.4732824427480916,0.23702596435546874,1.0941501586914062,9.198522778320312,28.577058823529413
2025-10-20T16:17:10.446512,-4.687022900763359,-0.20610687022900764,-0.46564885496183206,0.21308394775390624,1.1061211669921875,9.344569079589844,28.577058823529413
2025-10-20T16:17:10.463334,-3.1908396946564888,-0.40458015267175573,-0.40458015267175573,0.30406361083984373,1.1563994018554686,9.215282189941405,28.53
2025-10-20T16:17:10.480150,-1.8015267175572518,-0.7022900763358778,-0.4732824427480916,0.34715924072265625,1.2832920898437499,9.217676391601563,28.577058823529413
2025-10-20T16:17:10.496966,-0.061068702290076333,-0.6564885496183206,-0.3053435114503817,0.2154781494140625,1.2808978881835937,9.220070593261719,28.577058823529413
2025-10-20T16:17:10.513778,1.4809160305343512,-0.7022900763358778,-0.32061068702290074,0.3232172241210937,1.2928688964843749,9.184157568359375,28.671176470588236
2025-10-20T16:17:10.530591,3.1374045801526718,-0.6946564885496184,-0.46564885496183206,0.2537853759765625,1.3742717529296875,9.244012609863281,28.53
2025-10-20T16:17:10.547412,4.0534351145038165,-0.8854961832061069,-0.4580152671755725,0.3806780639648437,1.5227122558593749,9.344569079589844,28.671176470588236
2025-10-20T16:17:10.564244,5.801526717557252,-0.7480916030534351,-0.37404580152671757,0.42377369384765623,1.7022773803710936,9.289502441406249,28.624117647058824
2025-10-20T16:17:10.581090,3.1297709923664123,-0.8320610687022901,-0.17557251908396945,0.34715924072265625,1.7884686401367187,9.433154541015625,28.624117647058824
2025-10-20T16:17:10.597935,2.0610687022900764,-0.6030534351145038,-0.26717557251908397,0.36631285400390623,1.956062756347656,9.361328491210937,28.671176470588236
2025-10-20T16:17:10.614764,0.7786259541984732,-0.4732824427480916,-0.29770992366412213,0.28730419921875,2.061407629394531,9.363722692871093,28.718235294117648
2025-10-20T16:17:10.631601,-0.7022900763358778,-0.3969465648854962,-0.29770992366412213,0.2825157958984375,2.042254016113281,9.433154541015625,28.671176470588236
2025-10-20T16:17:10.648431,-2.1908396946564888,-0.2824427480916031,-0.2900763358778626,0.28969840087890625,2.1260510742187497,9.373299499511718,28.577058823529413
2025-10-20T16:17:10.665245,-3.687022900763359,-0.2748091603053435,-0.22137404580152673,0.2537853759765625,2.152387292480469,9.244012609863281,28.624117647058824
2025-10-20T16:17:10.682060,-4.755725190839694,-0.22137404580152673,-0.366412213740458,0.15322890625,2.0254946044921875,9.229647399902344,28.53
2025-10-20T16:17:10.698872,-5.015267175572519,-0.2900763358778626,-0.5572519083969466,0.062249243164062495,1.8435352783203125,9.287108239746093,28.577058823529413
2025-10-20T16:17:10.715685,-4.145038167938932,-0.3893129770992366,-0.7557251908396947,0.033518823242187495,1.7262193969726563,9.215282189941405,28.577058823529413
2025-10-20T16:17:10.732492,-2.3969465648854964,-0.6412213740458015,-0.8244274809160306,0.06703764648437499,1.5322890624999999,9.129090930175781,28.577058823529413
2025-10-20T16:17:10.749304,0.48854961832061067,-1.0076335877862594,-0.8396946564885496,0.033518823242187495,1.3718775512695311,9.179369165039063,28.624117647058824
2025-10-20T16:17:10.766112,3.618320610687023,-1.1984732824427482,-0.5572519083969466,0.13407529296874998,1.3000515014648437,8.978256225585938,28.577058823529413
2025-10-20T16:17:10.782919,7.175572519083969,-1.6106870229007633,-0.5877862595419847,0.10773907470703124,1.0965443603515623,8.94473740234375,28.671176470588236
2025-10-20T16:17:10.799729,10.98473282442748,-2.1603053435114505,-0.21374045801526717,0.16998831787109375,1.1324573852539062,9.126696728515624,28.624117647058824
2025-10-20T16:17:10.816544,14.664122137404581,-2.3435114503816794,-0.16030534351145037,0.2609679809570312,1.3144167114257812,8.997409838867187,28.624117647058824
2025-10-20T16:17:10.833351,18.564885496183205,-2.687022900763359,-0.25190839694656486,0.29448680419921874,1.350329736328125,8.777143286132812,28.48294117647059
2025-10-20T16:17:10.850168,22.358778625954198,-2.9389312977099236,-0.10687022900763359,0.3016694091796875,1.2282254516601563,9.035717065429687,28.577058823529413
2025-10-20T16:17:10.866977,24.900763358778626,-2.8702290076335877,0.05343511450381679,0.2657563842773437,1.5705962890624998,9.188945971679686,28.624117647058824
2025-10-20T16:17:10.883792,26.083969465648856,-2.7557251908396947,0.1984732824427481,0.3806780639648437,1.7190367919921874,9.047688073730468,28.53
2025-10-20T16:17:10.900594,26.34351145038168,-2.786259541984733,0.3816793893129771,0.277727392578125,1.7812860351562498,9.131485131835937,28.577058823529413
2025-10-20T16:17:10.917408,26.206106870229007,-2.6106870229007635,0.45038167938931295,0.29927520751953124,1.8411410766601561,9.14824454345703,28.671176470588236
2025-10-20T16:17:10.934216,26.786259541984734,-2.8396946564885495,0.4580152671755725,0.24899697265624998,1.6352397338867186,9.069235888671875,28.53
2025-10-20T16:17:10.951026,27.290076335877863,-2.3969465648854964,0.2824427480916031,0.29448680419921874,1.5969325073242187,9.045293872070312,28.718235294117648
2025-10-20T16:17:10.967840,27.519083969465647,-2.450381679389313,0.35877862595419846,0.36391865234375,1.6065093139648436,9.057264880371093,28.577058823529413
2025-10-20T16:17:10.984647,26.83206106870229,-2.1068702290076335,0.35877862595419846,0.3232172241210937,1.6903063720703124,9.162609753417968,28.671176470588236
2025-10-20T16:17:11.001680,25.87786259541985,-2.045801526717557,0.3969465648854962,0.44532150878906246,1.927332336425781,9.105148913574219,28.671176470588236
2025-10-20T16:17:11.019373,24.66412213740458,-1.8091603053435115,0.2900763358778626,0.28969840087890625,1.8770541015625,9.112331518554686,28.577058823529413
2025-10-20T16:17:11.036298,23.99236641221374,-1.4274809160305344,0.08396946564885496,0.2609679809570312,1.85790048828125,9.191340173339842,28.624117647058824
2025-10-20T16:17:11.053200,23.389312977099237,-1.1145038167938932,-0.20610687022900764,0.30406361083984373,1.9608511596679685,9.18655177001953,28.624117647058824
2025-10-20T16:17:11.070018,22.129770992366414,-0.7251908396946565,-0.4732824427480916,0.2657563842773437,2.2864625854492187,9.074024291992187,28.624117647058824
2025-10-20T16:17:11.086868,19.96946564885496,-0.3969465648854962,-0.648854961832061,0.3136404174804687,2.370259643554687,9.138667736816405,28.577058823529413
2025-10-20T16:17:11.103687,17.297709923664122,-0.04580152671755725,-1.0458015267175573,0.3112462158203125,2.5713725830078125,9.143456140136719,28.624117647058824
2025-10-20T16:17:11.120485,14.450381679389313,0.4732824427480916,-1.3435114503816794,0.3327940307617187,2.789244934082031,9.14824454345703,28.624117647058824
2025-10-20T16:17:11.137377,10.610687022900763,1.0610687022900764,-1.8091603053435115,0.37828386230468747,3.0597897216796874,9.064447485351561,28.671176470588236
2025-10-20T16:17:11.154239,7.755725190839694,1.8625954198473282,-2.122137404580153,0.16759411621093748,3.2321722412109373,9.172186560058593,28.53
2025-10-20T16:17:11.171061,-0.22137404580152673,2.3053435114503817,-2.4732824427480917,0.0718260498046875,3.4428619873046875,9.153032946777342,28.53
2025-10-20T16:17:11.187876,-7.122137404580153,2.7709923664122136,-2.7480916030534353,0.14604630126953125,3.545812658691406,9.34696328125,28.577058823529413
2025-10-20T16:17:11.204761,-13.618320610687023,3.564885496183206,-3.053435114503817,0.28012159423828126,3.3782185424804685,9.363722692871093,28.624117647058824
2025-10-20T16:17:11.221644,-17.671755725190838,4.061068702290076,-3.068702290076336,0.2537853759765625,3.6272155151367187,9.200916979980468,28.577058823529413
2025-10-20T16:17:11.238473,-25.267175572519083,4.465648854961832,-3.2213740458015265,0.2561795776367187,3.689464758300781,9.255983618164063,28.624117647058824
2025-10-20T16:17:11.255319,-31.480916030534353,4.9541984732824424,-3.1297709923664123,0.2705447875976562,3.801992236328125,9.203311181640624,28.671176470588236
2025-10-20T16:17:11.272148,-37.69465648854962,4.885496183206107,-3.053435114503817,0.3016694091796875,3.825934252929687,9.402029919433593,28.577058823529413
2025-10-20T16:17:11.288972,-42.98473282442748,5.33587786259542,-3.2442748091603053,0.3687070556640625,3.7301661865234372,9.361328491210937,28.53
2025-10-20T16:17:11.305825,-46.98473282442748,5.099236641221374,-3.5267175572519083,0.4070142822265625,3.526659045410156,9.246406811523437,28.671176470588236
2025-10-20T16:17:11.322656,-48.86259541984733,5.213740458015267,-4.0534351145038165,0.5003881469726562,3.366247534179687,9.215282189941405,28.48294117647059
2025-10-20T16:17:11.339479,-50.42748091603053,5.534351145038168,-4.526717557251908,0.39264907226562495,3.299209887695312,9.26316622314453,28.624117647058824
2025-10-20T16:17:11.356301,-51.20610687022901,5.480916030534351,-4.679389312977099,0.2705447875976562,3.2130186279296873,9.212887988281249,28.577058823529413
2025-10-20T16:17:11.373114,-52.12977099236641,5.297709923664122,-4.923664122137405,0.3232172241210937,3.0142998901367184,9.409212524414063,28.577058823529413
2025-10-20T16:17:11.389932,-52.3206106870229,5.015267175572519,-5.343511450381679,0.3758896606445312,2.6192566162109374,9.459490759277344,28.624117647058824
2025-10-20T16:17:11.406743,-51.74809160305343,4.778625954198473,-5.770992366412214,0.15562310791015624,2.408566870117187,9.279925634765624,28.624117647058824
2025-10-20T16:17:11.423554,-49.61068702290076,4.534351145038168,-6.106870229007634,0.2657563842773437,2.070984436035156,9.464279162597656,28.48294117647059
2025-10-20T16:17:11.440376,-46.229007633587784,4.1679389312977095,-6.595419847328245,0.19871873779296872,1.6519991455078125,9.129090930175781,28.577058823529413
2025-10-20T16:17:11.457340,-42.29770992366412,4.0534351145038165,-7.2748091603053435,0.2442085693359375,1.3479355346679687,9.14824454345703,28.671176470588236
2025-10-20T16:17:11.474175,-38.11450381679389,3.3587786259541983,-7.580152671755725,0.22266075439453123,1.0917559570312498,9.165003955078124,28.624117647058824
2025-10-20T16:17:11.490996,-33.35114503816794,2.8625954198473282,-7.786259541984733,0.258573779296875,0.8810662109374999,9.318232861328125,28.53
2025-10-20T16:17:11.507842,-28.38167938931298,2.633587786259542,-7.99236641221374,0.354341845703125,0.4477157104492187,9.196128576660156,28.577058823529413
2025-10-20T16:17:11.524683,-21.81679389312977,1.6793893129770991,-8.17557251908397,0.6967126831054687,0.37828386230468747,9.34696328125,28.624117647058824
2025-10-20T16:17:11.541505,-14.923664122137405,1.213740458015267,-7.900763358778626,0.5578489868164063,0.28012159423828126,8.865728747558594,28.577058823529413
2025-10-20T16:17:11.558335,-8.122137404580153,0.549618320610687,-7.816793893129771,0.5410895751953124,0.3758896606445312,9.169792358398437,28.577058823529413
2025-10-20T16:17:11.575154,-2.1526717557251906,0.06870229007633588,-7.587786259541985,0.3950432739257812,0.5770026000976562,9.074024291992187,28.53
2025-10-20T16:17:11.591972,2.2213740458015265,1.8778625954198473,-7.122137404580153,0.32082302246093747,0.3854664672851562,9.418789331054686,28.577058823529413
2025-10-20T16:17:11.608788,6.374045801526718,-0.7862595419847328,-6.603053435114504,0.469263525390625,0.507570751953125,9.246406811523437,28.577058823529413
2025-10-20T16:17:11.625609,9.435114503816793,-0.8015267175572519,-6.015267175572519,0.5482721801757812,0.6679822631835937,9.085995300292968,28.53
2025-10-20T16:17:11.642424,11.19083969465649,-0.5954198473282443,-5.00763358778626,0.4165910888671875,0.9050082275390624,9.011775048828124,28.624117647058824
2025-10-20T16:17:11.659249,11.229007633587786,-0.5267175572519084,-4.183206106870229,0.43574470214843747,1.1061211669921875,9.064447485351561,28.577058823529413
2025-10-20T16:17:11.676067,8.717557251908397,-0.2748091603053435,-3.50381679389313,0.46208092041015625,1.3551181396484375,9.366116894531249,28.577058823529413
2025-10-20T16:17:11.692881,4.648854961832061,-0.09923664122137404,-2.7480916030534353,0.4070142822265625,1.3718775512695311,9.502586389160156,28.624117647058824
2025-10-20T16:17:11.709705,0.1984732824427481,0.1450381679389313,-1.900763358778626,0.296881005859375,1.3383587280273437,9.464279162597656,28.671176470588236
2025-10-20T16:17:11.726531,-4.488549618320611,-1.9389312977099236,-1.465648854961832,0.3280056274414062,1.2713210815429687,9.37808790283203,28.577058823529413
2025-10-20T16:17:11.743347,-9.15267175572519,0.4198473282442748,-0.7099236641221374,0.1771709228515625,1.1276689819335937,9.323021264648437,28.577058823529413
2025-10-20T16:17:11.760173,-14.51908396946565,0.6793893129770993,-0.4198473282442748,0.21068974609375,0.9026140258789062,9.361328491210937,28.53
2025-10-20T16:17:11.777016,-19.770992366412212,0.8854961832061069,-0.29770992366412213,0.1580173095703125,0.7781155395507812,9.567229833984374,28.577058823529413
2025-10-20T16:17:11.793838,-24.022900763358777,1.3053435114503817,-0.20610687022900764,0.15083470458984374,0.7230489013671875,9.536105212402344,28.53
2025-10-20T16:17:11.810665,-27.30534351145038,1.3893129770992367,-0.26717557251908397,0.24181436767578124,0.40940848388671874,9.222464794921875,28.671176470588236
2025-10-20T16:17:11.827542,-28.85496183206107,1.5114503816793894,-0.5954198473282443,0.07422025146484375,0.239420166015625,9.205705383300781,28.624117647058824
2025-10-20T16:17:11.844389,-30.450381679389313,1.7938931297709924,-0.6412213740458015,0.09816226806640624,0.009576806640625,9.344569079589844,28.671176470588236
2025-10-20T16:17:11.861222,-30.49618320610687,1.4427480916030535,-0.7786259541984732,0.13168109130859373,0.00718260498046875,9.294290844726563,28.671176470588236
2025-10-20T16:17:11.878118,-30.045801526717558,1.4580152671755726,-0.8778625954198473,0.10773907470703124,-0.3064578125,9.33978067626953,28.624117647058824
2025-10-20T16:17:11.894963,-28.748091603053435,1.702290076335878,-1.1526717557251909,-0.02154781494140625,-0.36152445068359373,9.090783703613281,28.48294117647059
2025-10-20T16:17:11.911785,-25.82442748091603,1.4198473282442747,-1.4274809160305344,-0.105344873046875,-0.5315127685546874,9.016563452148437,28.624117647058824
2025-10-20T16:17:11.928637,-22.541984732824428,1.297709923664122,-1.8702290076335877,-0.105344873046875,-0.5770026000976562,8.973467822265624,28.577058823529413
2025-10-20T16:17:11.945455,-19.80916030534351,1.0,-2.2748091603053435,-0.23223756103515625,-0.2442085693359375,8.796296899414061,28.577058823529413
2025-10-20T16:17:11.962278,-18.48854961832061,1.1755725190839694,-2.1526717557251906,0.15083470458984374,-0.33039982910156246,9.327809667968749,28.624117647058824
2025-10-20T16:17:11.979097,-18.16030534351145,1.2290076335877862,-1.702290076335878,0.14604630126953125,-0.047884033203124995,9.402029919433593,28.671176470588236
2025-10-20T16:17:11.995999,-19.450381679389313,1.702290076335878,-1.282442748091603,0.031124621582031248,0.11013327636718749,9.457096557617186,28.624117647058824
2025-10-20T16:17:12.012855,-20.519083969465647,1.702290076335878,-0.9618320610687023,-0.181959326171875,0.34237083740234375,9.418789331054686,28.577058823529413
2025-10-20T16:17:12.030417,-22.625954198473284,1.5725190839694656,-0.4198473282442748,-0.13646949462890623,0.44532150878906246,9.617508068847656,28.671176470588236
2025-10-20T16:17:12.047395,-25.27480916030534,2.015267175572519,-0.09923664122137404,0.06943184814453125,0.33039982910156246,9.785102185058593,28.577058823529413
2025-10-20T16:17:12.064267,-28.557251908396946,2.1603053435114505,0.29770992366412213,0.16998831787109375,0.2154781494140625,9.813832604980469,28.53
2025-10-20T16:17:12.081088,-31.96946564885496,2.954198473282443,0.4198473282442748,0.13407529296874998,-0.06703764648437499,9.708487731933593,28.577058823529413
2025-10-20T16:17:12.097930,-34.54961832061068,3.114503816793893,0.732824427480916,0.07900865478515624,-0.19393033447265623,9.423577734375,28.577058823529413
2025-10-20T16:17:12.114752,-36.6412213740458,3.572519083969466,1.1526717557251909,-0.13168109130859373,-0.5147533569335937,9.490615380859374,28.624117647058824
2025-10-20T16:17:12.131687,-37.50381679389313,3.7404580152671754,1.381679389312977,0.05027823486328125,-0.6607996582031249,9.440337145996093,28.53
2025-10-20T16:17:12.148614,-37.0763358778626,4.038167938931298,1.6412213740458015,0.15083470458984374,-0.7206546997070312,9.284714038085937,28.671176470588236
2025-10-20T16:17:12.165452,-35.732824427480914,4.267175572519084,1.748091603053435,0.15562310791015624,-0.7972691528320313,9.289502441406249,28.624117647058824
2025-10-20T16:17:12.182268,-33.80916030534351,4.465648854961832,1.6412213740458015,-0.01915361328125,-1.2138602416992186,9.126696728515624,28.671176470588236
2025-10-20T16:17:12.199079,-33.19847328244275,4.625954198473282,1.4274809160305344,-0.15562310791015624,-1.39821376953125,8.913612780761719,28.577058823529413
2025-10-20T16:17:12.215884,-26.793893129770993,4.236641221374046,1.3206106870229009,-0.047884033203124995,-1.484405029296875,8.767566479492187,28.53
2025-10-20T16:17:12.232690,-22.65648854961832,4.435114503816794,1.213740458015267,-0.12449848632812499,-1.4820108276367188,8.84178673095703,28.624117647058824
2025-10-20T16:17:12.249500,-17.893129770992367,5.8396946564885495,1.1297709923664123,-0.08858546142578125,-1.2401964599609374,8.884882360839843,28.577058823529413
2025-10-20T16:17:12.266339,-14.488549618320612,3.618320610687023,1.366412213740458,-0.0143652099609375,-1.3646949462890625,8.856151940917968,28.577058823529413
2025-10-20T16:17:12.283159,-11.526717557251908,2.9923664122137406,1.1526717557251909,0.26815058593749996,-1.1468225952148436,8.954314208984375,28.624117647058824
2025-10-20T16:17:12.299971,-9.351145038167939,2.618320610687023,1.6106870229007633,0.2657563842773437,-0.8786720092773437,9.011775048828124,28.671176470588236
2025-10-20T16:17:12.316790,-8.793893129770993,1.7557251908396947,1.786259541984733,0.2154781494140625,-0.6344634399414062,9.105148913574219,28.671176470588236
2025-10-20T16:17:12.333620,-9.022900763358779,1.450381679389313,2.3282442748091605,0.055066638183593745,-0.3711012573242187,9.02135185546875,28.624117647058824
2025-10-20T16:17:12.350495,-10.381679389312977,2.213740458015267,2.4885496183206106,-0.016759411621093748,-1.0654197387695312,9.282319836425781,28.577058823529413
2025-10-20T16:17:12.367367,-11.84732824427481,1.1908396946564885,2.648854961832061,-0.1484405029296875,-0.11252747802734374,9.160215551757812,28.624117647058824
2025-10-20T16:17:12.384174,-12.80916030534351,1.5648854961832062,2.786259541984733,0.00718260498046875,-1.13006318359375,9.246406811523437,28.577058823529413
2025-10-20T16:17:12.400992,-11.793893129770993,0.12213740458015267,2.66412213740458,0.2753331909179687,-0.8355763793945312,8.89924757080078,28.577058823529413
2025-10-20T16:17:12.417817,-10.541984732824428,0.7022900763358778,2.0916030534351147,-0.43574470214843747,-1.4437036010742186,8.640673791503906,28.718235294117648
2025-10-20T16:17:12.434667,-9.625954198473282,-0.4961832061068702,1.450381679389313,0.016759411621093748,-1.6807295654296874,8.86094034423828,28.671176470588236
2025-10-20T16:17:12.451507,-4.404580152671755,1.8854961832061068,0.7175572519083969,-0.28490999755859375,-1.5179238525390624,8.583212951660157,28.577058823529413
2025-10-20T16:17:12.468343,0.5114503816793893,-0.9694656488549618,0.007633587786259542,-0.15562310791015624,-1.5346832641601562,8.757989672851561,28.718235294117648
2025-10-20T16:17:12.485171,4.435114503816794,-0.7557251908396947,-0.366412213740458,0.009576806640625,-1.7573440185546874,8.722076647949219,28.577058823529413
2025-10-20T16:17:12.501997,8.900763358778626,-1.282442748091603,-0.7709923664122137,-0.3711012573242187,-1.5777788940429687,8.480262280273436,28.671176470588236
2025-10-20T16:17:12.518817,13.122137404580153,-1.6946564885496183,-1.2900763358778626,-0.28730419921875,-2.360682836914062,8.997409838867187,28.53
2025-10-20T16:17:12.535637,18.52671755725191,-2.1603053435114505,-2.5267175572519083,-0.2705447875976562,-2.0566192260742184,8.48505068359375,28.577058823529413
2025-10-20T16:17:12.552456,24.595419847328245,-2.717557251908397,-3.5877862595419847,-0.16280571289062498,-2.5354595581054684,8.82263311767578,28.577058823529413
2025-10-20T16:17:12.569281,30.404580152671755,-4.290076335877862,-4.244274809160306,0.2154781494140625,-1.5251064575195312,8.719682446289061,28.53
2025-10-20T16:17:12.586099,34.41984732824427,-5.106870229007634,-4.419847328244275,0.48123453369140623,-1.2425906616210938,9.323021264648437,28.577058823529413
2025-10-20T16:17:12.602917,35.38931297709924,-5.6183206106870225,-3.7404580152671754,0.1580173095703125,-0.565031591796875,9.878476049804688,28.671176470588236
2025-10-20T16:17:12.619733,34.19847328244275,-5.862595419847328,-3.717557251908397,0.1005564697265625,-0.55545478515625,9.114725720214842,28.624117647058824
2025-10-20T16:17:12.636547,30.793893129770993,-4.480916030534351,-2.984732824427481,0.17956512451171874,-0.3064578125,10.122684619140625,28.624117647058824
2025-10-20T16:17:12.653366,26.404580152671755,-4.587786259541985,-3.0763358778625953,0.3232172241210937,-0.55545478515625,9.351751684570312,28.577058823529413
2025-10-20T16:17:12.670192,21.587786259541986,-5.8396946564885495,-2.5114503816793894,0.36152445068359373,0.03591302490234375,9.859322436523437,28.577058823529413
2025-10-20T16:17:12.687012,14.290076335877863,-2.564885496183206,-2.0610687022900764,0.8044517578125,0.02633621826171875,10.405200415039062,28.671176470588236
2025-10-20T16:17:12.703832,7.175572519083969,-2.0763358778625953,-0.007633587786259542,0.17238251953125,0.18914193115234373,10.206481677246094,28.718235294117648
2025-10-20T16:17:12.720717,-2.351145038167939,-1.83206106870229,-1.816793893129771,0.0143652099609375,0.15322890625,10.429142431640624,28.48294117647059
2025-10-20T16:17:12.737576,-9.618320610687023,-0.5038167938931297,-2.900763358778626,-0.1771709228515625,-0.5410895751953124,9.911994873046874,28.53
2025-10-20T16:17:12.754408,-17.862595419847327,1.0,-2.6412213740458017,-0.14604630126953125,-0.4165910888671875,9.763554370117188,28.671176470588236
2025-10-20T16:17:12.771268,-22.03053435114504,1.099236641221374,-3.900763358778626,-0.44053310546874996,-0.8930372192382812,9.411606726074218,28.671176470588236
2025-10-20T16:17:12.788120,-23.83206106870229,1.8244274809160306,-4.740458015267175,-0.6009446166992187,-1.2425906616210938,9.469067565917967,28.624117647058824
2025-10-20T16:17:12.804951,-22.702290076335878,1.6030534351145038,-5.8396946564885495,-0.689530078125,-1.4628572143554686,9.143456140136719,28.577058823529413
2025-10-20T16:17:12.821780,-20.49618320610687,0.6793893129770993,-6.656488549618321,-0.258573779296875,-1.4508862060546874,9.3086560546875,28.671176470588236
2025-10-20T16:17:12.838602,-19.282442748091604,1.4885496183206106,-6.534351145038168,-0.47165772705078124,-1.5346832641601562,9.5001921875,28.624117647058824
2025-10-20T16:17:12.855510,-16.82442748091603,0.5114503816793893,-6.435114503816794,0.41419688720703124,-1.5873557006835937,8.760383874511719,28.577058823529413
2025-10-20T16:17:12.872356,-14.694656488549619,1.465648854961832,-5.465648854961832,-0.16998831787109375,-1.2521674682617188,9.471461767578125,28.48294117647059
2025-10-20T16:17:12.889181,-11.19083969465649,-0.29770992366412213,-5.091603053435114,0.5865794067382812,-1.3527239379882812,9.038111267089842,28.53
2025-10-20T16:17:12.906019,-9.526717557251908,0.8396946564885496,-4.190839694656488,-0.028730419921875,-0.5099649536132812,9.052476477050782,28.671176470588236
2025-10-20T16:17:12.923806,-10.076335877862595,0.31297709923664124,-3.16793893129771,-0.1580173095703125,-0.430956298828125,9.267954626464844,28.671176470588236
2025-10-20T16:17:12.940664,-11.305343511450381,0.7786259541984732,-2.0381679389312977,0.2920926025390625,-0.3902548706054687,8.978256225585938,28.624117647058824
2025-10-20T16:17:12.957482,-13.381679389312977,0.3282442748091603,-1.3740458015267176,-0.055066638183593745,-0.8906430175781249,9.394847314453125,28.624117647058824
2025-10-20T16:17:12.974327,-15.01526717557252,-0.22137404580152673,-0.44274809160305345,0.34237083740234375,-0.373495458984375,9.234435803222656,28.671176470588236
2025-10-20T16:17:12.991149,-17.236641221374047,0.07633587786259542,0.183206106870229,-0.0718260498046875,-0.612915625,9.244012609863281,28.718235294117648
2025-10-20T16:17:13.007973,-17.954198473282442,0.24427480916030533,1.0305343511450382,0.0143652099609375,-0.8858546142578124,8.896853369140624,28.53
2025-10-20T16:17:13.024795,-19.519083969465647,0.9541984732824428,1.1603053435114503,-0.21308394775390624,-0.8930372192382812,8.913612780761719,28.671176470588236
2025-10-20T16:17:13.041618,-18.129770992366414,-0.04580152671755725,0.022900763358778626,0.12689268798828124,-1.695094775390625,9.210493786621093,28.671176470588236
2025-10-20T16:17:13.058445,-16.53435114503817,1.1374045801526718,-1.7633587786259541,-0.1484405029296875,-0.8116343627929687,8.923189587402343,28.53
2025-10-20T16:17:13.075283,-11.32824427480916,0.3511450381679389,-3.8931297709923665,-0.00718260498046875,-1.9536685546875,8.825027319335938,28.577058823529413
2025-10-20T16:17:13.092110,-7.122137404580153,0.40458015267175573,-5.1679389312977095,-0.3495534423828125,-1.2785036865234374,8.836998327636719,28.671176470588236
2025-10-20T16:17:13.108928,-2.5572519083969465,1.9236641221374047,-6.343511450381679,-0.4836287353515625,-1.9536685546875,8.578424548339843,28.577058823529413
2025-10-20T16:17:13.125744,2.549618320610687,-0.6259541984732825,-6.740458015267175,-0.3280056274414062,-1.7884686401367187,8.91840118408203,28.624117647058824
2025-10-20T16:17:13.142910,6.564885496183206,-0.15267175572519084,-7.152671755725191,-0.239420166015625,-1.3168109130859373,8.647856396484375,28.624117647058824
2025-10-20T16:17:13.159799,11.664122137404581,-0.8244274809160306,-7.068702290076335,0.18914193115234373,-1.8148048583984373,9.0788126953125,28.577058823529413
2025-10-20T16:17:13.176752,15.19083969465649,-1.0229007633587786,-6.366412213740458,0.24181436767578124,-1.0462661254882812,8.84178673095703,28.53
2025-10-20T16:17:13.193606,19.53435114503817,-1.7709923664122138,-6.4961832061068705,0.0,-1.7334020019531249,9.354145886230468,28.577058823529413
2025-10-20T16:17:13.210418,22.68702290076336,-2.2595419847328246,-6.198473282442748,0.3136404174804687,-0.9504980590820312,9.437942944335937,28.671176470588236
2025-10-20T16:17:13.227264,24.30534351145038,-2.282442748091603,-6.2748091603053435,0.3327940307617187,-1.1444283935546875,8.908824377441405,28.577058823529413
2025-10-20T16:17:13.244082,25.236641221374047,-3.1603053435114505,-5.824427480916031,0.32082302246093747,-0.7062894897460937,9.651026892089844,28.671176470588236
2025-10-20T16:17:13.260900,23.755725190839694,-0.030534351145038167,-5.862595419847328,0.06703764648437499,-0.1867477294921875,9.323021264648437,28.624117647058824
2025-10-20T16:17:13.277727,20.412213740458014,-1.5877862595419847,-5.625954198473282,-0.10773907470703124,-0.28969840087890625,9.720458740234374,28.53
2025-10-20T16:17:13.294544,16.022900763358777,-0.48091603053435117,-6.083969465648855,0.6919242797851562,0.06464344482421874,9.801861596679688,28.577058823529413
2025-10-20T16:17:13.311356,12.320610687022901,0.6946564885496184,-7.221374045801527,0.12210428466796874,-0.35194764404296874,9.945513696289062,28.577058823529413
2025-10-20T16:17:13.328165,8.16030534351145,1.0,-8.076335877862595,-0.00239420166015625,-0.7661445312499999,9.660603698730467,28.624117647058824
2025-10-20T16:17:13.345000,4.282442748091603,1.3206106870229009,-8.557251908396946,-0.13407529296874998,-0.9121908325195311,9.524134204101562,28.624117647058824
2025-10-20T16:17:13.361817,1.9083969465648856,1.2366412213740459,-8.908396946564885,-0.22505495605468748,-1.0797849487304687,9.64623848876953,28.671176470588236
2025-10-20T16:17:13.378637,-0.04580152671755725,2.0763358778625953,-8.84732824427481,-0.38307226562499996,-0.8499415893554687,9.282319836425781,28.671176470588236
2025-10-20T16:17:13.395452,0.9923664122137404,1.1984732824427482,-9.038167938931299,0.016759411621093748,-1.4173673828125,8.975862023925782,28.718235294117648
2025-10-20T16:17:13.412289,2.0839694656488548,2.16793893129771,-8.992366412213741,-0.23702596435546874,-1.149216796875,9.337386474609374,28.577058823529413
2025-10-20T16:17:13.429106,5.824427480916031,0.32061068702290074,-9.34351145038168,0.41419688720703124,-1.5466542724609373,8.75320126953125,28.577058823529413
2025-10-20T16:17:13.445944,9.511450381679388,-0.40458015267175573,-9.267175572519085,0.11252747802734374,-1.0941501586914062,9.222464794921875,28.577058823529413
2025-10-20T16:17:13.462768,14.51908396946565,-0.11450381679389313,-9.541984732824428,0.09576806640624999,-1.7812860351562498,8.932766394042968,28.624117647058824
2025-10-20T16:17:13.479589,17.64885496183206,-1.9236641221374047,-9.183206106870228,0.19153613281249998,-0.9720458740234375,8.89924757080078,28.577058823529413
2025-10-20T16:17:13.496402,22.18320610687023,-1.534351145038168,-8.465648854961833,0.24660277099609373,-0.9720458740234375,9.277531433105468,28.577058823529413
2025-10-20T16:17:13.513231,23.923664122137403,-1.984732824427481,-7.183206106870229,-0.0430956298828125,-0.5626373901367188,9.107543115234375,28.718235294117648
2025-10-20T16:17:13.530073,22.85496183206107,-2.4198473282442747,-6.694656488549619,0.05027823486328125,0.062249243164062495,9.701305126953125,28.624117647058824
2025-10-20T16:17:13.546897,21.51145038167939,-1.9541984732824427,-7.786259541984733,0.33758243408203126,-0.19871873779296872,9.631873278808593,28.577058823529413
2025-10-20T16:17:13.563799,19.14503816793893,-1.786259541984733,-5.251908396946565,0.3495534423828125,0.031124621582031248,9.605537060546874,28.624117647058824
2025-10-20T16:17:13.580652,16.419847328244273,-0.6412213740458015,-4.7251908396946565,0.5339069702148437,0.2561795776367187,9.478644372558593,28.577058823529413
2025-10-20T16:17:13.597480,13.213740458015268,-0.8854961832061069,-4.549618320610687,0.7493851196289062,-0.2825157958984375,9.528922607421874,28.577058823529413
2025-10-20T16:17:13.614371,8.221374045801527,-0.366412213740458,-4.061068702290076,0.3399766357421875,0.5339069702148437,9.658209497070311,28.624117647058824
2025-10-20T16:17:13.631203,4.358778625954199,-0.2900763358778626,-1.9694656488549618,0.584185205078125,-0.39264907226562495,9.952696301269532,28.577058823529413
2025-10-20T16:17:13.648020,-0.6946564885496184,0.19083969465648856,-4.1603053435114505,0.47644613037109373,0.3591302490234375,9.662997900390625,28.671176470588236
2025-10-20T16:17:13.664840,-1.4732824427480915,1.1603053435114503,-4.206106870229007,0.8571241943359375,-0.5817910034179687,9.248801013183593,28.624117647058824
2025-10-20T16:17:13.681667,-2.6717557251908395,1.3740458015267176,-4.3893129770992365,0.3902548706054687,0.16041151123046873,9.437942944335937,28.577058823529413
2025-10-20T16:17:13.698488,-1.4198473282442747,0.5267175572519084,-5.358778625954199,0.4261678955078125,-0.44053310546874996,8.930372192382812,28.671176470588236
2025-10-20T16:17:13.715374,-0.5190839694656488,1.015267175572519,-6.083969465648855,-0.09816226806640624,-0.45968671875,9.509768994140625,28.53
2025-10-20T16:17:13.732198,0.9236641221374046,1.5190839694656488,-7.061068702290076,-0.0718260498046875,-0.29927520751953124,8.614337573242187,28.718235294117648
2025-10-20T16:17:13.749011,2.5877862595419847,1.1068702290076335,-5.870229007633588,-0.22505495605468748,-0.12689268798828124,9.076418493652342,28.577058823529413
2025-10-20T16:17:13.765827,3.6946564885496183,0.8931297709923665,-8.557251908396946,-0.0909796630859375,0.22266075439453123,9.325415466308593,28.577058823529413
2025-10-20T16:17:13.783431,6.9541984732824424,0.5801526717557252,-9.396946564885496,-0.2753331909179687,0.19153613281249998,8.844180932617187,28.53
2025-10-20T16:17:13.800266,9.290076335877863,-0.6870229007633588,-9.98473282442748,0.17238251953125,0.12689268798828124,9.507374792480467,28.671176470588236
2025-10-20T16:17:13.817080,10.687022900763358,0.37404580152671757,-9.908396946564885,0.13168109130859373,0.47644613037109373,9.074024291992187,28.577058823529413
2025-10-20T16:17:13.833902,11.221374045801527,-0.4961832061068702,-10.122137404580153,0.4477157104492187,0.00718260498046875,9.440337145996093,28.53
2025-10-20T16:17:13.850713,10.274809160305344,-1.8625954198473282,-11.725190839694656,0.6871358764648438,0.7158662963867187,8.729259252929687,28.53
2025-10-20T16:17:13.867521,9.251908396946565,-0.48091603053435117,-9.267175572519085,-0.02633621826171875,0.5722141967773438,9.404424121093749,28.53
2025-10-20T16:17:13.884357,6.32824427480916,-0.7709923664122137,-8.854961832061068,0.16998831787109375,0.5602431884765625,9.495403784179686,28.577058823529413
2025-10-20T16:17:13.901186,3.946564885496183,1.6793893129770991,-8.534351145038167,0.20829554443359374,0.7852981445312499,9.392453112792968,28.53
2025-10-20T16:17:13.918002,1.5648854961832062,-1.0916030534351144,-8.030534351145038,0.22026655273437498,0.19393033447265623,9.86411083984375,28.624117647058824
2025-10-20T16:17:13.934816,0.2366412213740458,-0.7480916030534351,-7.770992366412214,0.24660277099609373,0.6512228515624999,8.875305554199219,28.624117647058824
2025-10-20T16:17:13.951634,-1.816793893129771,0.09923664122137404,-6.9541984732824424,0.07422025146484375,0.316034619140625,9.574412438964844,28.671176470588236
2025-10-20T16:17:13.968446,-2.3282442748091605,-1.748091603053435,-6.770992366412214,0.0718260498046875,-0.4429273071289062,9.042899670410156,28.671176470588236
2025-10-20T16:17:13.985261,-3.4198473282442747,0.6641221374045801,-5.854961832061068,-0.3687070556640625,0.13646949462890623,9.370905297851563,28.577058823529413
2025-10-20T16:17:14.002071,-2.4580152671755724,1.9083969465648856,-5.587786259541985,0.27293898925781246,-0.3711012573242187,9.727641345214844,28.53
2025-10-20T16:17:14.018882,-0.015267175572519083,0.4732824427480916,-5.33587786259542,0.16998831787109375,-0.229843359375,8.88009395751953,28.53
2025-10-20T16:17:14.035756,-0.022900763358778626,-0.916030534351145,-5.061068702290076,0.23702596435546874,-0.25139117431640623,9.5384994140625,28.577058823529413
2025-10-20T16:17:14.052597,1.633587786259542,-0.22137404580152673,-4.916030534351145,-0.12449848632812499,-0.6631938598632812,8.904035974121093,28.718235294117648
2025-10-20T16:17:14.069423,1.9541984732824427,-0.9694656488549618,-4.473282442748092,0.0430956298828125,-0.34715924072265625,9.373299499511718,28.577058823529413
2025-10-20T16:17:14.086258,5.8396946564885495,-1.183206106870229,-4.145038167938932,-0.0047884033203125,-0.42377369384765623,9.495403784179686,28.671176470588236
2025-10-20T16:17:14.103075,8.053435114503817,-1.9541984732824427,-5.8396946564885495,-0.1005564697265625,-0.42377369384765623,9.244012609863281,28.624117647058824
2025-10-20T16:17:14.119892,8.954198473282442,-1.7404580152671756,-3.3740458015267176,0.34715924072265625,0.181959326171875,9.337386474609374,28.624117647058824
2025-10-20T16:17:14.136727,8.854961832061068,-1.1297709923664123,-3.1908396946564888,-0.033518823242187495,0.28490999755859375,9.423577734375,28.577058823529413
2025-10-20T16:17:14.153549,7.595419847328245,-2.053435114503817,-2.7251908396946565,0.42377369384765623,0.6607996582031249,9.811438403320311,28.577058823529413
2025-10-20T16:17:14.170365,5.480916030534351,-1.2900763358778626,-2.633587786259542,0.6751648681640625,0.4644751220703125,9.315838659667968,28.577058823529413
2025-10-20T16:17:14.187187,3.198473282442748,-0.9770992366412213,-2.3206106870229006,0.4477157104492187,0.26336218261718747,9.282319836425781,28.53
2025-10-20T16:17:14.204011,0.4351145038167939,-0.6259541984732825,-2.4427480916030535,0.6081272216796875,0.40462008056640625,9.715670336914062,28.624117647058824
2025-10-20T16:17:14.220839,-0.33587786259541985,0.2900763358778626,-2.198473282442748,0.469263525390625,-0.10773907470703124,9.447519750976562,28.48294117647059
2025-10-20T16:17:14.237661,-7.358778625954199,0.4198473282442748,-2.1526717557251906,0.49320554199218747,1.2497732666015624,9.883264453125,28.671176470588236
2025-10-20T16:17:14.254478,-11.053435114503817,1.4122137404580153,-2.351145038167939,0.7996633544921875,0.29448680419921874,10.012551342773437,28.53
2025-10-20T16:17:14.271310,-15.51908396946565,1.4732824427480915,-2.0,0.201112939453125,0.97683427734375,9.821015209960937,28.624117647058824
2025-10-20T16:17:14.288128,-17.916030534351144,1.9389312977099236,-2.572519083969466,0.40940848388671874,0.3280056274414062,9.560047229003906,28.671176470588236
2025-10-20T16:17:14.304945,-20.259541984732824,1.7709923664122138,-3.16793893129771,-0.38307226562499996,0.1388636962890625,9.440337145996093,28.671176470588236
2025-10-20T16:17:14.321762,-20.564885496183205,1.5877862595419847,-3.9618320610687023,-0.258573779296875,0.6607996582031249,9.054870678710937,28.718235294117648
2025-10-20T16:17:14.338605,-20.404580152671755,2.8396946564885495,-4.6183206106870225,-0.11013327636718749,-0.16759411621093748,9.452308154296874,28.624117647058824
2025-10-20T16:17:14.355430,-20.099236641221374,2.8091603053435112,-4.755725190839694,0.4572925170898437,0.32561142578124996,9.41639512939453,28.671176470588236
2025-10-20T16:17:14.372250,-18.47328244274809,2.2061068702290076,-4.938931297709924,0.17956512451171874,-0.277727392578125,9.2320416015625,28.577058823529413
2025-10-20T16:17:14.389076,-17.213740458015266,2.49618320610687,-4.7251908396946565,0.2442085693359375,-0.10773907470703124,9.239224206542968,28.624117647058824
2025-10-20T16:17:14.406009,-15.282442748091603,1.6564885496183206,-4.152671755725191,0.36391865234375,-0.28012159423828126,9.145850341796875,28.577058823529413
2025-10-20T16:17:14.422876,-14.83969465648855,2.549618320610687,-3.3740458015267176,0.055066638183593745,-0.43574470214843747,9.545682019042967,28.624117647058824
2025-10-20T16:17:14.439777,-14.687022900763358,1.2061068702290076,-2.7709923664122136,0.21308394775390624,-0.11252747802734374,9.014169250488282,28.577058823529413
2025-10-20T16:17:14.456724,-14.908396946564885,1.8396946564885497,-3.9083969465648853,0.373495458984375,-0.105344873046875,9.418789331054686,28.671176470588236
2025-10-20T16:17:14.473579,-13.702290076335878,1.717557251908397,-1.4122137404580153,0.20350714111328125,-0.11252747802734374,9.289502441406249,28.624117647058824
2025-10-20T16:17:14.490419,-14.778625954198473,0.9007633587786259,-1.3587786259541985,0.5123591552734374,-0.5722141967773438,9.507374792480467,28.624117647058824
2025-10-20T16:17:14.507246,-15.213740458015268,1.8396946564885497,-1.083969465648855,0.17238251953125,-0.4381389038085937,9.521740002441407,28.577058823529413
2025-10-20T16:17:14.524069,-14.15267175572519,0.46564885496183206,-1.4122137404580153,0.6919242797851562,-0.469263525390625,9.117119921875,28.577058823529413
2025-10-20T16:17:14.540891,-13.473282442748092,2.213740458015267,-1.6793893129770991,0.09337386474609374,-0.7637503295898437,9.102754711914063,28.53
2025-10-20T16:17:14.557711,-11.603053435114504,0.4351145038167939,-2.3282442748091605,0.3327940307617187,-0.19393033447265623,8.892064965820312,28.53
2025-10-20T16:17:14.574615,-10.213740458015268,0.9923664122137404,-2.8702290076335877,-0.2753331909179687,-0.9983820922851562,9.397241516113281,28.53
2025-10-20T16:17:14.591451,-8.396946564885496,0.29770992366412213,-3.549618320610687,0.16519991455078123,-0.469263525390625,9.191340173339842,28.624117647058824
2025-10-20T16:17:14.608275,-5.038167938931298,0.3435114503816794,-3.4885496183206106,0.1771709228515625,-0.5434837768554687,8.980650427246093,28.671176470588236
2025-10-20T16:17:14.625097,-1.4351145038167938,0.4732824427480916,-3.6259541984732824,0.19153613281249998,-1.0390835205078124,9.181763366699219,28.577058823529413
2025-10-20T16:17:14.641976,1.5419847328244274,-0.2748091603053435,-3.450381679389313,0.32082302246093747,-0.6177040283203125,9.184157568359375,28.624117647058824
2025-10-20T16:17:14.658828,4.595419847328245,-0.6183206106870229,-2.8702290076335877,0.41419688720703124,-0.8044517578125,9.469067565917967,28.577058823529413
2025-10-20T16:17:14.675650,6.473282442748092,-1.1984732824427482,-2.2061068702290076,0.16041151123046873,-0.5770026000976562,9.13627353515625,28.577058823529413
2025-10-20T16:17:14.692492,8.34351145038168,-1.015267175572519,-1.7328244274809161,0.36391865234375,-0.08379705810546874,9.095572106933593,28.718235294117648
2025-10-20T16:17:14.709310,9.992366412213741,-1.702290076335878,-1.6412213740458015,0.6296750366210937,0.45489831542968745,9.627084875488281,28.577058823529413
2025-10-20T16:17:14.726131,9.977099236641221,-1.5419847328244274,-1.8778625954198473,0.5746083984375,0.42377369384765623,9.325415466308593,28.671176470588236
2025-10-20T16:17:14.742948,9.007633587786259,-3.8931297709923665,-1.2671755725190839,0.3327940307617187,0.1005564697265625,9.667786303710937,28.577058823529413
2025-10-20T16:17:14.759767,6.396946564885496,-1.9923664122137406,-1.0916030534351144,0.469263525390625,0.19871873779296872,9.212887988281249,28.624117647058824
2025-10-20T16:17:14.776587,3.618320610687023,-1.984732824427481,-0.5190839694656488,-0.062249243164062495,-0.09816226806640624,9.945513696289062,28.624117647058824
2025-10-20T16:17:14.793412,1.8015267175572518,-1.2748091603053435,-0.648854961832061,0.32082302246093747,0.16280571289062498,9.421183532714844,28.577058823529413
2025-10-20T16:17:14.810236,-3.854961832061069,-0.7557251908396947,-1.213740458015267,-0.14604630126953125,-0.4070142822265625,9.737218151855469,28.577058823529413
2025-10-20T16:17:14.827051,-4.412213740458015,-0.7099236641221374,-2.099236641221374,0.23702596435546874,0.06464344482421874,10.084377392578125,28.624117647058824
2025-10-20T16:17:14.843863,-6.587786259541985,-0.5114503816793893,-3.3053435114503817,-0.33039982910156246,-0.239420166015625,9.188945971679686,28.624117647058824
2025-10-20T16:17:14.860676,-8.572519083969466,-0.2824427480916031,-3.7557251908396947,-0.105344873046875,-0.3280056274414062,9.485826977539062,28.671176470588236
2025-10-20T16:17:14.877495,-9.068702290076336,1.8702290076335877,-4.6183206106870225,-0.2346317626953125,-0.45489831542968745,8.724470849609375,28.577058823529413
2025-10-20T16:17:14.894325,-7.717557251908397,0.32061068702290074,-5.015267175572519,0.21787235107421873,-0.5770026000976562,9.358934289550781,28.577058823529413
2025-10-20T16:17:14.911158,-5.244274809160306,0.29770992366412213,-5.33587786259542,0.1484405029296875,-0.028730419921875,9.100360510253905,28.718235294117648
2025-10-20T16:17:14.927981,-2.3282442748091605,-0.11450381679389313,-5.312977099236641,-0.08140285644531249,-1.0893617553710937,9.114725720214842,28.624117647058824
2025-10-20T16:17:14.944796,-0.9007633587786259,-0.5725190839694656,-4.679389312977099,0.7996633544921875,-0.2561795776367187,9.138667736816405,28.577058823529413
2025-10-20T16:17:14.961617,1.0381679389312977,0.3893129770992366,-4.00763358778626,-0.09816226806640624,-1.3263877197265623,8.939948999023438,28.577058823529413
2025-10-20T16:17:14.978444,3.3282442748091605,-0.6106870229007634,-3.1526717557251906,0.7637503295898437,-0.5123591552734374,9.469067565917967,28.624117647058824
2025-10-20T16:17:14.995280,5.984732824427481,-0.007633587786259542,-2.9236641221374047,0.5027823486328125,-0.6536170532226562,8.777143286132812,28.624117647058824
2025-10-20T16:17:15.012096,9.854961832061068,-0.8778625954198473,-2.3587786259541983,0.45010991210937495,-0.9145850341796874,9.244012609863281,28.671176470588236
2025-10-20T16:17:15.028919,15.236641221374045,-2.5267175572519083,-2.1755725190839694,0.7422025146484375,0.11731588134765625,8.963891015625,28.671176470588236
2025-10-20T16:17:15.045736,17.068702290076335,-1.0610687022900764,-1.8625954198473282,0.30885201416015623,-0.411802685546875,9.251195214843749,28.624117647058824
2025-10-20T16:17:15.062554,18.786259541984734,-1.6488549618320612,-1.6870229007633588,0.6368576416015624,0.07900865478515624,8.815450512695312,28.624117647058824
2025-10-20T16:17:15.079380,19.801526717557252,-1.1603053435114503,-1.9312977099236641,0.0383072265625,-0.0909796630859375,9.562441430664062,28.577058823529413
2025-10-20T16:17:15.096207,21.755725190839694,-0.6641221374045801,-2.2213740458015265,0.2537853759765625,-0.3016694091796875,9.303867651367186,28.577058823529413
2025-10-20T16:17:15.113031,22.442748091603054,-0.7557251908396947,-2.4580152671755724,0.37828386230468747,0.7015010864257812,9.289502441406249,28.624117647058824
2025-10-20T16:17:15.129853,22.48854961832061,-1.9389312977099236,-2.3893129770992365,0.39743747558593745,-0.17956512451171874,9.22485899658203,28.624117647058824
2025-10-20T16:17:15.146669,20.938931297709924,-0.31297709923664124,-2.2595419847328246,0.4381389038085937,0.8571241943359375,9.478644372558593,28.577058823529413
2025-10-20T16:17:15.163486,18.213740458015266,-0.05343511450381679,-2.2519083969465647,0.07900865478515624,0.062249243164062495,9.763554370117188,28.577058823529413
2025-10-20T16:17:15.180302,15.526717557251908,0.6183206106870229,-2.2290076335877864,0.3280056274414062,1.0414777221679687,9.543287817382812,28.671176470588236
2025-10-20T16:17:15.197467,12.610687022900763,0.6412213740458015,-2.0,0.04548983154296875,0.296881005859375,9.533711010742186,28.671176470588236
2025-10-20T16:17:15.215422,10.076335877862595,1.6793893129770991,-2.3206106870229006,0.34237083740234375,0.699106884765625,9.392453112792968,28.624117647058824
2025-10-20T16:17:15.232289,7.633587786259542,-0.03816793893129771,-2.5572519083969465,0.49320554199218747,0.3854664672851562,8.741230261230468,28.671176470588236
2025-10-20T16:17:15.249198,4.648854961832061,1.16793893129771,-2.8702290076335877,-0.239420166015625,0.6296750366210937,9.095572106933593,28.624117647058824
2025-10-20T16:17:15.266058,2.351145038167939,0.1297709923664122,-3.0,0.00718260498046875,0.4333505004882812,9.718064538574218,28.48294117647059
2025-10-20T16:17:15.282892,-0.7938931297709924,1.1221374045801527,-3.5419847328244276,-0.143652099609375,0.40940848388671874,9.028534460449219,28.577058823529413
2025-10-20T16:17:15.299731,-2.5343511450381677,0.7251908396946565,-3.687022900763359,0.21787235107421873,0.7326257080078125,9.866505041503906,28.53
2025-10-20T16:17:15.316554,-3.877862595419847,1.450381679389313,-1.984732824427481,0.15322890625,0.354341845703125,9.090783703613281,28.577058823529413
2025-10-20T16:17:15.333415,-7.809160305343512,1.450381679389313,-4.0458015267175576,-0.062249243164062495,0.5482721801757812,9.284714038085937,28.624117647058824
2025-10-20T16:17:15.350240,-7.091603053435114,1.3587786259541985,-3.9770992366412212,0.2609679809570312,0.27293898925781246,9.627084875488281,28.624117647058824
2025-10-20T16:17:15.367035,-8.396946564885496,1.2061068702290076,-4.00763358778626,0.26815058593749996,0.29927520751953124,9.397241516113281,28.624117647058824
2025-10-20T16:17:15.383852,-9.778625954198473,0.8549618320610687,-3.6793893129770994,0.36152445068359373,0.6081272216796875,9.287108239746093,28.671176470588236
2025-10-20T16:17:15.400700,-10.541984732824428,1.015267175572519,-3.6259541984732824,-0.076614453125,0.033518823242187495,9.299079248046874,28.53
2025-10-20T16:17:15.417553,-12.854961832061068,0.3282442748091603,-3.0839694656488548,0.59376201171875,0.5770026000976562,9.425971936035156,28.624117647058824
2025-10-20T16:17:15.434470,-13.763358778625955,0.7099236641221374,-2.49618320610687,0.9433154541015625,0.48123453369140623,9.686939916992188,28.624117647058824
2025-10-20T16:17:15.451319,-17.31297709923664,1.5114503816793894,-2.099236641221374,0.23702596435546874,0.7134720947265625,9.840168823242188,28.624117647058824
2025-10-20T16:17:15.468150,-19.022900763358777,0.9694656488549618,-1.2900763358778626,0.5147533569335937,0.4429273071289062,9.988609326171874,28.577058823529413
2025-10-20T16:17:15.484982,-22.587786259541986,2.2442748091603053,-0.3969465648854962,-0.30885201416015623,0.1867477294921875,9.773131176757811,28.671176470588236
2025-10-20T16:17:15.501884,-23.053435114503817,0.6335877862595419,0.07633587786259542,-0.0909796630859375,0.42377369384765623,9.871293444824218,28.624117647058824
2025-10-20T16:17:15.518738,-23.35114503816794,1.4885496183206106,0.732824427480916,-0.086191259765625,0.21308394775390624,9.76116016845703,28.577058823529413
2025-10-20T16:17:15.535565,-25.259541984732824,1.4122137404580153,0.8091603053435115,0.13168109130859373,0.296881005859375,9.497797985839844,28.718235294117648
2025-10-20T16:17:15.552392,-22.51145038167939,1.4198473282442747,0.648854961832061,0.1005564697265625,0.047884033203124995,9.114725720214842,28.624117647058824
2025-10-20T16:17:15.569217,-20.450381679389313,1.4122137404580153,0.46564885496183206,0.42377369384765623,-0.5195417602539062,9.581595043945311,28.577058823529413
2025-10-20T16:17:15.586041,-18.65648854961832,0.37404580152671757,0.05343511450381679,0.7972691528320313,-0.21787235107421873,9.421183532714844,28.577058823529413
2025-10-20T16:17:15.602886,-15.419847328244275,1.8702290076335877,-0.3893129770992366,0.488417138671875,-0.5698199951171875,9.591171850585937,28.624117647058824
2025-10-20T16:17:15.619711,-12.458015267175572,-0.13740458015267176,-0.6335877862595419,0.6344634399414062,-0.3854664672851562,9.545682019042967,28.624117647058824
2025-10-20T16:17:15.636536,-8.435114503816793,-0.22137404580152673,-1.0381679389312977,0.5243301635742187,-0.4477157104492187,9.296685046386719,28.577058823529413
2025-10-20T16:17:15.653357,-7.786259541984733,0.10687022900763359,-1.4809160305343512,0.70868369140625,-0.5147533569335937,9.785102185058593,28.671176470588236
2025-10-20T16:17:15.670181,-3.877862595419847,-0.4198473282442748,-1.9770992366412214,1.0965443603515623,-0.047884033203124995,8.947131604003905,28.53
2025-10-20T16:17:15.687007,0.8320610687022901,0.2900763358778626,-2.351145038167939,0.7852981445312499,-0.49320554199218747,9.425971936035156,28.624117647058824
2025-10-20T16:17:15.703834,3.687022900763359,1.8244274809160306,-2.717557251908397,0.7829039428710937,-0.1484405029296875,9.411606726074218,28.577058823529413
2025-10-20T16:17:15.720666,7.1679389312977095,-1.8244274809160306,-2.931297709923664,0.34715924072265625,-0.6727706665039062,9.220070593261719,28.577058823529413
2025-10-20T16:17:15.737497,8.450381679389313,-0.3893129770992366,-3.16793893129771,0.20829554443359374,-0.33758243408203126,9.414000927734374,28.671176470588236
2025-10-20T16:17:15.754984,9.786259541984732,-0.8015267175572519,-3.236641221374046,0.15083470458984374,-0.10295067138671875,8.595183959960938,28.624117647058824
2025-10-20T16:17:15.771839,11.549618320610687,-0.35877862595419846,-2.954198473282443,0.011971008300781249,-0.10773907470703124,9.715670336914062,28.624117647058824
2025-10-20T16:17:15.788666,12.366412213740459,-0.12213740458015267,-2.763358778625954,0.469263525390625,0.33039982910156246,9.066841687011719,28.577058823529413
2025-10-20T16:17:15.805500,12.19083969465649,0.42748091603053434,-2.6106870229007635,0.19153613281249998,0.24899697265624998,10.326191760253906,28.671176470588236
2025-10-20T16:17:15.822328,10.80916030534351,0.7251908396946565,-2.8473282442748094,-0.016759411621093748,0.15322890625,9.435548742675781,28.624117647058824
2025-10-20T16:17:15.839154,9.458015267175572,1.8473282442748091,-2.572519083969466,-0.16998831787109375,0.14604630126953125,9.212887988281249,28.577058823529413
2025-10-20T16:17:15.855987,7.1603053435114505,0.8854961832061069,-2.5419847328244276,-0.06943184814453125,0.5267243652343749,9.627084875488281,28.577058823529413
2025-10-20T16:17:15.872814,5.549618320610687,2.312977099236641,-2.717557251908397,0.26336218261718747,0.0383072265625,9.107543115234375,28.718235294117648
2025-10-20T16:17:15.889639,3.7786259541984735,1.6259541984732824,-2.9083969465648853,0.2059013427734375,0.8164227661132812,9.507374792480467,28.624117647058824
2025-10-20T16:17:15.906470,3.381679389312977,1.5877862595419847,-3.4732824427480917,0.3687070556640625,0.16759411621093748,9.294290844726563,28.577058823529413
2025-10-20T16:17:15.923296,2.145038167938931,1.6793893129770991,-3.7480916030534353,0.03591302490234375,0.36152445068359373,9.198522778320312,28.577058823529413
2025-10-20T16:17:15.940132,2.183206106870229,1.717557251908397,-4.7251908396946565,-0.016759411621093748,0.18914193115234373,9.153032946777342,28.624117647058824
2025-10-20T16:17:15.956958,1.8702290076335877,3.572519083969466,-5.358778625954199,0.033518823242187495,0.06464344482421874,9.234435803222656,28.624117647058824
2025-10-20T16:17:15.973790,2.954198473282443,1.465648854961832,-6.206106870229007,0.18914193115234373,0.3184288208007812,9.0788126953125,28.577058823529413
2025-10-20T16:17:15.990616,4.33587786259542,1.618320610687023,-6.9465648854961835,-0.028730419921875,0.15562310791015624,9.050082275390624,28.577058823529413
2025-10-20T16:17:16.007438,5.419847328244275,1.1374045801526718,-7.030534351145038,0.21308394775390624,0.6440402465820312,9.368511096191405,28.53
2025-10-20T16:17:16.024270,6.748091603053435,0.6564885496183206,-7.32824427480916,-0.19153613281249998,0.06943184814453125,8.698134631347656,28.53
2025-10-20T16:17:16.041096,8.145038167938932,0.9541984732824428,-7.412213740458015,-0.086191259765625,-0.07422025146484375,9.016563452148437,28.577058823529413
2025-10-20T16:17:16.057923,8.595419847328245,1.9465648854961832,-7.694656488549619,0.17956512451171874,0.1197100830078125,8.98304462890625,28.671176470588236
2025-10-20T16:17:16.074748,11.419847328244275,0.6641221374045801,-7.824427480916031,0.18435352783203124,-0.30885201416015623,8.813056311035156,28.577058823529413
2025-10-20T16:17:16.091651,12.786259541984732,-0.4732824427480916,-7.748091603053435,0.28730419921875,0.41419688720703124,9.217676391601563,28.671176470588236
2025-10-20T16:17:16.108530,15.381679389312977,-0.4580152671755725,-7.8396946564885495,0.0526724365234375,-0.1388636962890625,8.825027319335938,28.624117647058824
2025-10-20T16:17:16.125372,15.816793893129772,-0.7938931297709924,-7.480916030534351,0.612915625,0.5243301635742187,9.22485899658203,28.53
2025-10-20T16:17:16.142217,15.740458015267176,-0.7099236641221374,-7.473282442748092,0.22505495605468748,0.06703764648437499,8.671798413085938,28.577058823529413
2025-10-20T16:17:16.159054,14.65648854961832,-0.7022900763358778,-6.900763358778626,0.4740519287109375,0.18435352783203124,9.052476477050782,28.624117647058824
2025-10-20T16:17:16.175884,13.358778625954198,-0.366412213740458,-6.809160305343512,0.7398083129882812,0.7876923461914062,9.04050546875,28.624117647058824
2025-10-20T16:17:16.192727,11.969465648854962,0.3282442748091603,-6.396946564885496,0.22026655273437498,0.3280056274414062,9.418789331054686,28.671176470588236
2025-10-20T16:17:16.209566,10.374045801526718,-0.2824427480916031,-6.030534351145038,0.4165910888671875,0.7781155395507812,9.306261853027344,28.671176470588236
2025-10-20T16:17:16.226450,8.19083969465649,3.8625954198473282,-5.916030534351145,0.34715924072265625,0.27293898925781246,9.095572106933593,28.624117647058824
2025-10-20T16:17:16.243305,5.022900763358779,0.5419847328244275,-5.427480916030534,0.6943184814453125,1.1635820068359375,9.813832604980469,28.671176470588236
2025-10-20T16:17:16.260133,2.8473282442748094,1.9236641221374047,-5.099236641221374,0.354341845703125,0.4836287353515625,9.488221179199218,28.671176470588236
2025-10-20T16:17:16.276981,-0.48854961832061067,1.5267175572519085,-4.366412213740458,0.10295067138671875,0.6392518432617187,9.138667736816405,28.624117647058824
2025-10-20T16:17:16.293887,-2.50381679389313,1.183206106870229,-3.946564885496183,0.3016694091796875,0.469263525390625,9.275137231445312,28.577058823529413
2025-10-20T16:17:16.310774,-4.816793893129771,1.549618320610687,-3.1908396946564888,0.1580173095703125,0.7924807495117187,9.469067565917967,28.53
2025-10-20T16:17:16.327594,-6.305343511450381,0.7633587786259542,-2.6030534351145036,0.5913678100585937,0.7445967163085937,9.473855969238281,28.577058823529413
2025-10-20T16:17:16.344410,-8.16030534351145,1.3587786259541985,-2.2213740458015265,0.28730419921875,0.5674257934570313,9.600748657226562,28.577058823529413
2025-10-20T16:17:16.361256,-9.648854961832061,0.8854961832061069,-1.7709923664122138,0.2537853759765625,0.6057330200195312,9.105148913574219,28.624117647058824
2025-10-20T16:17:16.378076,-9.923664122137405,1.9389312977099236,-1.2442748091603053,0.25139117431640623,0.5746083984375,9.60793126220703,28.624117647058824
2025-10-20T16:17:16.394889,-10.48091603053435,1.1145038167938932,-1.0305343511450382,0.14604630126953125,0.6560112548828124,9.172186560058593,28.577058823529413
2025-10-20T16:17:16.411741,-9.198473282442748,-0.7480916030534351,-0.7099236641221374,0.20829554443359374,0.28969840087890625,9.516951599121093,28.577058823529413
2025-10-20T16:17:16.428573,-9.34351145038168,0.42748091603053434,-0.8473282442748091,0.028730419921875,0.5793968017578125,9.229647399902344,28.718235294117648
2025-10-20T16:17:16.445407,-8.374045801526718,-1.015267175572519,-1.0763358778625953,0.16041151123046873,1.0869675537109373,9.528922607421874,28.624117647058824
2025-10-20T16:17:16.462242,-6.412213740458015,0.45038167938931295,-1.5038167938931297,0.14125789794921875,0.6751648681640625,9.457096557617186,28.671176470588236
2025-10-20T16:17:16.479064,-5.366412213740458,-1.0610687022900764,-2.0,0.20350714111328125,0.8116343627929687,9.337386474609374,28.577058823529413
2025-10-20T16:17:16.495892,-5.809160305343512,-0.6259541984732825,-1.9770992366412214,0.34237083740234375,0.8212111694335937,9.435548742675781,28.624117647058824
2025-10-20T16:17:16.512739,-0.015267175572519083,-0.32061068702290074,-2.122137404580153,0.20350714111328125,0.3447650390625,9.605537060546874,28.577058823529413
2025-10-20T16:17:16.529559,-0.9389312977099237,-1.2061068702290076,-2.236641221374046,0.39743747558593745,0.4740519287109375,9.428366137695312,28.671176470588236
2025-10-20T16:17:16.546386,0.44274809160305345,1.816793893129771,-2.1374045801526718,-0.10295067138671875,0.41419688720703124,9.572018237304688,28.624117647058824
2025-10-20T16:17:16.563206,0.08396946564885496,-1.083969465648855,-1.8396946564885497,0.36391865234375,0.17477672119140625,9.730035546875,28.624117647058824
2025-10-20T16:17:16.580030,3.213740458015267,-0.4122137404580153,-1.9923664122137406,0.040701428222656245,0.15562310791015624,9.576806640625,28.624117647058824
2025-10-20T16:17:16.596855,5.122137404580153,-0.5572519083969466,-0.05343511450381679,0.373495458984375,0.15562310791015624,9.679757312011718,28.577058823529413
2025-10-20T16:17:16.614450,5.290076335877862,-1.5114503816793894,-1.6641221374045803,0.2561795776367187,0.7350199096679687,9.423577734375,28.624117647058824
2025-10-20T16:17:16.631302,6.129770992366412,-0.15267175572519084,-1.16793893129771,0.3232172241210937,0.0,9.871293444824218,28.624117647058824
2025-10-20T16:17:16.648137,6.076335877862595,-0.6564885496183206,-1.1984732824427482,0.36152445068359373,0.6081272216796875,9.6917283203125,28.671176470588236
2025-10-20T16:17:16.664968,6.015267175572519,-0.05343511450381679,-0.5267175572519084,0.5243301635742187,0.7829039428710937,9.730035546875,28.577058823529413
2025-10-20T16:17:16.681796,3.801526717557252,1.83206106870229,-0.46564885496183206,0.30406361083984373,1.0223241088867188,9.737218151855469,28.718235294117648
2025-10-20T16:17:16.698627,3.3206106870229006,-0.19083969465648856,-0.42748091603053434,0.40222587890625,1.0630255371093749,9.437942944335937,28.624117647058824
2025-10-20T16:17:16.715465,0.1297709923664122,0.5190839694656488,0.12213740458015267,-0.01915361328125,1.2904746948242187,10.072406384277343,28.671176470588236
2025-10-20T16:17:16.732289,-1.1068702290076335,0.5038167938931297,0.2595419847328244,0.5147533569335937,1.0869675537109373,9.428366137695312,28.577058823529413
2025-10-20T16:17:16.749123,-5.122137404580153,1.7404580152671756,1.1603053435114503,0.430956298828125,1.3527239379882812,10.08677159423828,28.53
2025-10-20T16:17:16.765945,-7.404580152671755,1.549618320610687,1.381679389312977,0.6248866333007812,0.7613561279296874,9.390058911132812,28.624117647058824
2025-10-20T16:17:16.782799,-11.435114503816793,3.198473282442748,2.282442748091603,0.10773907470703124,1.20667763671875,9.708487731933593,28.577058823529413
2025-10-20T16:17:16.799631,-12.83206106870229,1.7786259541984732,2.427480916030534,0.41419688720703124,0.5051765502929687,9.658209497070311,28.577058823529413
2025-10-20T16:17:16.816462,-15.13740458015267,3.4427480916030535,3.1603053435114505,-0.17238251953125,0.82360537109375,9.076418493652342,28.53
2025-10-20T16:17:16.833335,-15.778625954198473,2.687022900763359,3.404580152671756,0.373495458984375,0.11252747802734374,9.629479077148437,28.577058823529413
2025-10-20T16:17:16.850179,-16.068702290076335,2.83206106870229,3.786259541984733,-0.09576806640624999,0.36391865234375,8.825027319335938,28.53
2025-10-20T16:17:16.867016,-16.587786259541986,2.7557251908396947,4.412213740458015,-0.0143652099609375,0.430956298828125,9.481038574218749,28.624117647058824
2025-10-20T16:17:16.883844,-16.885496183206108,2.427480916030534,4.572519083969466,0.201112939453125,0.06464344482421874,9.330203869628905,28.577058823529413
2025-10-20T16:17:16.900672,-16.69465648854962,2.2061068702290076,4.67175572519084,-0.12210428466796874,0.49320554199218747,9.2320416015625,28.577058823529413
2025-10-20T16:17:16.917511,-14.679389312977099,1.6870229007633588,4.297709923664122,-0.040701428222656245,-0.07422025146484375,9.449913952636718,28.624117647058824
2025-10-20T16:17:16.934378,-12.86259541984733,1.4809160305343512,4.2748091603053435,-0.5602431884765625,0.316034619140625,8.683769421386717,28.577058823529413
2025-10-20T16:17:16.951231,-9.34351145038168,0.648854961832061,3.786259541984733,0.06943184814453125,-0.2537853759765625,9.406818322753905,28.577058823529413
2025-10-20T16:17:16.968066,-7.580152671755725,0.9770992366412213,3.3435114503816794,-0.6248866333007812,0.24660277099609373,8.499415893554687,28.624117647058824
2025-10-20T16:17:16.984895,-3.9160305343511452,-0.5267175572519084,3.0229007633587788,0.06464344482421874,-0.1580173095703125,9.464279162597656,28.48294117647059
2025-10-20T16:17:17.001732,-1.0687022900763359,-0.3053435114503817,2.6564885496183206,-0.5410895751953124,-0.12449848632812499,8.51617530517578,28.577058823529413
2025-10-20T16:17:17.018571,2.9618320610687023,-2.3740458015267176,2.213740458015267,0.18435352783203124,0.16519991455078123,8.805873706054687,28.624117647058824
2025-10-20T16:17:17.035409,7.206106870229007,-2.2900763358778624,1.7251908396946565,0.16519991455078123,-0.12449848632812499,8.990227233886719,28.671176470588236
2025-10-20T16:17:17.052950,11.694656488549619,-3.7251908396946565,1.1603053435114503,0.38307226562499996,0.5051765502929687,8.607154968261717,28.671176470588236
2025-10-20T16:17:17.069830,14.091603053435115,-3.0381679389312977,1.0458015267175573,0.1149216796875,-0.3280056274414062,9.576806640625,28.577058823529413
2025-10-20T16:17:17.086670,17.763358778625953,-4.961832061068702,2.49618320610687,0.16519991455078123,-0.5147533569335937,8.29351455078125,28.577058823529413
2025-10-20T16:17:17.103511,19.68702290076336,-3.786259541984733,1.6870229007633588,0.08379705810546874,-0.28969840087890625,8.420407238769531,28.577058823529413
2025-10-20T16:17:17.120531,22.786259541984734,-3.4198473282442747,1.4732824427480915,0.59376201171875,0.354341845703125,8.975862023925782,28.577058823529413
2025-10-20T16:17:17.138860,23.14503816793893,-3.5343511450381677,1.916030534351145,-0.011971008300781249,1.5634136840820312,9.088389501953124,28.624117647058824
2025-10-20T16:17:17.155786,20.267175572519083,-3.49618320610687,0.015267175572519083,1.0510545288085937,1.2521674682617188,9.392453112792968,28.53
2025-10-20T16:17:17.172620,16.64885496183206,-2.183206106870229,2.3206106870229006,0.9265560424804687,1.944091748046875,9.131485131835937,28.53
2025-10-20T16:17:17.189431,10.694656488549619,-3.145038167938931,2.6564885496183206,0.507570751953125,2.2194249389648437,9.938331091308592,28.577058823529413
2025-10-20T16:17:17.206238,3.145038167938931,-2.114503816793893,3.3282442748091605,0.7493851196289062,1.714248388671875,9.809044201660155,28.671176470588236
2025-10-20T16:17:17.223732,-0.20610687022900764,-1.4198473282442747,3.0229007633587788,0.258573779296875,1.177947216796875,9.552864624023437,28.577058823529413
2025-10-20T16:17:17.240573,-8.687022900763358,-1.8473282442748091,3.618320610687023,0.16041151123046873,0.9504980590820312,9.337386474609374,28.624117647058824
2025-10-20T16:17:17.257412,-12.274809160305344,-0.7404580152671756,3.717557251908397,0.1771709228515625,0.5506663818359374,9.519345800781249,28.53
2025-10-20T16:17:17.274244,-14.389312977099237,0.2900763358778626,3.7557251908396947,0.023942016601562498,0.63206923828125,9.404424121093749,28.671176470588236
2025-10-20T16:17:17.291059,-14.977099236641221,-0.7557251908396947,3.900763358778626,0.27293898925781246,0.2920926025390625,9.528922607421874,28.671176470588236
2025-10-20T16:17:17.307893,-16.732824427480917,0.6335877862595419,3.549618320610687,0.3064578125,0.12449848632812499,9.756371765136718,28.53
2025-10-20T16:17:17.324762,-15.259541984732824,1.213740458015267,3.618320610687023,0.316034619140625,0.040701428222656245,9.557653027343749,28.671176470588236
2025-10-20T16:17:17.341605,-14.122137404580153,0.8854961832061069,3.564885496183206,0.2442085693359375,0.16280571289062498,8.74601866455078,28.624117647058824
2025-10-20T16:17:17.358438,-10.725190839694656,1.251908396946565,3.1603053435114505,0.07900865478515624,-0.0383072265625,9.205705383300781,28.53
2025-10-20T16:17:17.375265,-6.343511450381679,1.6870229007633588,2.6030534351145036,-0.21308394775390624,0.05746083984375,8.9255837890625,28.671176470588236
2025-10-20T16:17:17.392091,-0.4961832061068702,0.5267175572519084,2.0763358778625953,-0.3184288208007812,0.38307226562499996,9.445125549316407,28.577058823529413
2025-10-20T16:17:17.408917,3.114503816793893,-0.4351145038167939,1.213740458015267,-0.39983167724609375,0.4572925170898437,9.100360510253905,28.624117647058824
2025-10-20T16:17:17.425747,5.969465648854962,-0.366412213740458,0.6793893129770993,-0.15083470458984374,0.4572925170898437,9.203311181640624,28.624117647058824
2025-10-20T16:17:17.442602,12.16030534351145,-1.3435114503816794,1.8778625954198473,-0.6655880615234374,0.6488286499023437,8.78432589111328,28.671176470588236
2025-10-20T16:17:17.459459,17.137404580152673,-1.633587786259542,-0.5419847328244275,-0.1292868896484375,1.0199299072265624,9.121908325195312,28.718235294117648
2025-10-20T16:17:17.476463,19.984732824427482,-3.8625954198473282,-1.5419847328244274,-0.14125789794921875,1.3551181396484375,9.064447485351561,28.624117647058824
2025-10-20T16:17:17.493305,22.412213740458014,-2.5419847328244276,-0.061068702290076333,0.11731588134765625,1.5921441040039062,9.399635717773437,28.577058823529413
2025-10-20T16:17:17.510156,23.442748091603054,-1.2061068702290076,-2.816793893129771,0.3327940307617187,1.924938134765625,9.557653027343749,28.53
2025-10-20T16:17:17.526994,20.450381679389313,-1.465648854961832,-3.2061068702290076,0.737414111328125,1.8435352783203125,9.639055883789062,28.624117647058824
2025-10-20T16:17:17.543821,19.259541984732824,1.015267175572519,-3.854961832061069,0.2346317626953125,2.0661960327148434,9.380482104492186,28.577058823529413
2025-10-20T16:17:17.560643,16.80916030534351,-1.9236641221374047,-4.603053435114504,0.9528922607421875,1.438915197753906,9.375693701171874,28.577058823529413
2025-10-20T16:17:17.577466,14.198473282442748,1.8778625954198473,-5.076335877862595,0.5722141967773438,1.3072341064453123,9.337386474609374,28.671176470588236
2025-10-20T16:17:17.594287,12.038167938931299,0.9618320610687023,-4.931297709923665,0.97683427734375,1.2665326782226562,9.6151138671875,28.624117647058824
2025-10-20T16:17:17.611103,9.740458015267176,1.9465648854961832,-4.687022900763359,0.8690952026367187,0.8834604125976562,9.440337145996093,28.671176470588236
2025-10-20T16:17:17.627929,5.015267175572519,1.6717557251908397,-4.541984732824427,0.9457096557617187,1.1731588134765625,9.548076220703125,28.671176470588236
2025-10-20T16:17:17.644771,2.8091603053435112,2.4198473282442747,-4.801526717557252,0.7852981445312499,0.6919242797851562,9.299079248046874,28.624117647058824
2025-10-20T16:17:17.661619,2.1374045801526718,2.0229007633587788,-5.083969465648855,1.0342951171875,1.024718310546875,9.057264880371093,28.48294117647059
2025-10-20T16:17:17.678452,2.8396946564885495,2.5419847328244276,-5.526717557251908,0.258573779296875,0.7781155395507812,9.375693701171874,28.671176470588236
2025-10-20T16:17:17.695278,3.633587786259542,2.2442748091603053,-6.145038167938932,0.55545478515625,0.7015010864257812,9.081206896972656,28.624117647058824
2025-10-20T16:17:17.712133,4.33587786259542,1.748091603053435,-6.1679389312977095,-0.239420166015625,0.679953271484375,9.641450085449218,28.577058823529413
2025-10-20T16:17:17.728970,4.0,1.1450381679389312,-6.465648854961832,0.09337386474609374,1.0486603271484374,9.057264880371093,28.577058823529413
2025-10-20T16:17:17.745790,5.5038167938931295,0.648854961832061,-6.648854961832061,-0.02633621826171875,0.7302315063476562,8.963891015625,28.624117647058824
2025-10-20T16:17:17.762606,7.6183206106870225,0.061068702290076333,-7.221374045801527,0.13407529296874998,1.2401964599609374,8.91840118408203,28.53
2025-10-20T16:17:17.779607,10.86259541984733,-0.8549618320610687,-7.549618320610687,-0.01915361328125,1.0893617553710937,9.169792358398437,28.53
2025-10-20T16:17:17.796464,11.412213740458014,-0.6412213740458015,-8.01526717557252,0.13407529296874998,1.5251064575195312,8.702923034667968,28.671176470588236
2025-10-20T16:17:17.813298,11.633587786259541,-1.6106870229007633,-7.99236641221374,0.086191259765625,1.429338391113281,9.220070593261719,28.718235294117648
2025-10-20T16:17:17.830166,9.198473282442748,-1.450381679389313,-7.679389312977099,0.6081272216796875,1.905784521484375,9.543287817382812,28.577058823529413
2025-10-20T16:17:17.847027,7.625954198473282,-1.3740458015267176,-7.190839694656488,0.19153613281249998,1.4915876342773438,9.504980590820312,28.671176470588236
2025-10-20T16:17:17.863865,5.358778625954199,-1.3206106870229009,-7.015267175572519,0.5410895751953124,1.5514426757812498,9.3852705078125,28.624117647058824
2025-10-20T16:17:17.880689,3.6412213740458017,-1.0916030534351144,-6.557251908396947,0.35194764404296874,1.3623007446289062,9.402029919433593,28.671176470588236
2025-10-20T16:17:17.897521,0.33587786259541985,-0.4198473282442748,-6.419847328244275,0.7541735229492187,1.8315642700195311,9.205705383300781,28.671176470588236
2025-10-20T16:17:17.914370,-1.6870229007633588,-1.0076335877862594,-5.7251908396946565,0.5315127685546874,1.2761094848632812,9.823409411621093,28.624117647058824
2025-10-20T16:17:17.931207,-5.2748091603053435,-0.4351145038167939,-5.152671755725191,0.36391865234375,1.8052280517578123,9.605537060546874,28.671176470588236
2025-10-20T16:17:17.948031,-7.687022900763359,-0.8702290076335878,-4.641221374045801,0.6344634399414062,1.5610194824218748,9.734823950195311,28.671176470588236
2025-10-20T16:17:17.964854,-11.053435114503817,1.6412213740458015,-4.32824427480916,0.3591302490234375,1.9656395629882812,9.509768994140625,28.577058823529413
2025-10-20T16:17:17.981672,-12.557251908396946,-1.9083969465648856,-4.213740458015267,0.20350714111328125,1.3407529296874998,9.449913952636718,28.53
2025-10-20T16:17:17.998491,-16.18320610687023,0.8015267175572519,-4.229007633587786,-0.02154781494140625,2.001552587890625,9.191340173339842,28.671176470588236
2025-10-20T16:17:18.015310,-18.16030534351145,0.16793893129770993,-3.8473282442748094,0.24899697265624998,1.5418658691406248,9.804255798339844,28.577058823529413
2025-10-20T16:17:18.032221,-19.732824427480917,1.4045801526717556,-4.236641221374046,-0.27293898925781246,1.7645266235351562,9.09796630859375,28.577058823529413
2025-10-20T16:17:18.049075,-22.82442748091603,0.33587786259541985,-5.854961832061068,0.4860229370117187,1.7932570434570312,9.504980590820312,28.577058823529413
2025-10-20T16:17:18.065906,-25.106870229007633,1.7099236641221374,-4.458015267175573,0.2346317626953125,2.2649147705078123,9.081206896972656,28.718235294117648
2025-10-20T16:17:18.082725,-28.129770992366414,1.4580152671755726,-4.717557251908397,0.16280571289062498,1.68551796875,9.478644372558593,28.624117647058824
2025-10-20T16:17:18.100310,-31.717557251908396,2.0839694656488548,-4.572519083969466,0.016759411621093748,1.8770541015625,9.421183532714844,28.577058823529413
2025-10-20T16:17:18.117189,-36.17557251908397,0.0916030534351145,-3.9923664122137406,0.076614453125,1.649604943847656,9.78031378173828,28.624117647058824
2025-10-20T16:17:18.134034,-38.87786259541985,1.8091603053435115,-4.022900763358779,0.48123453369140623,1.3670891479492187,9.911994873046874,28.671176470588236
2025-10-20T16:17:18.150917,-41.36641221374046,2.3206106870229006,-3.7251908396946565,0.12689268798828124,0.9624690673828125,9.586383447265625,28.624117647058824
2025-10-20T16:17:18.167775,-41.16793893129771,3.0839694656488548,-4.442748091603053,0.3232172241210937,0.18914193115234373,8.94473740234375,28.671176470588236
2025-10-20T16:17:18.184610,-39.93129770992366,3.0916030534351147,-4.824427480916031,0.33039982910156246,0.46208092041015625,9.545682019042967,28.671176470588236
2025-10-20T16:17:18.201433,-37.412213740458014,2.801526717557252,-5.770992366412214,0.15322890625,0.34237083740234375,9.363722692871093,28.671176470588236
2025-10-20T16:17:18.218253,-35.9236641221374,2.8931297709923665,-6.259541984732825,0.277727392578125,0.33039982910156246,9.138667736816405,28.718235294117648
2025-10-20T16:17:18.235076,-32.18320610687023,4.022900763358779,-7.190839694656488,0.19393033447265623,-0.09576806640624999,8.86094034423828,28.671176470588236
2025-10-20T16:17:18.251951,-27.66412213740458,3.50381679389313,-7.763358778625954,0.08140285644531249,-0.5817910034179687,9.006986645507812,28.624117647058824
2025-10-20T16:17:18.268793,-23.14503816793893,3.450381679389313,-8.625954198473282,0.16759411621093748,-0.1484405029296875,8.980650427246093,28.624117647058824
2025-10-20T16:17:18.285614,-15.381679389312977,2.6793893129770994,-9.129770992366412,0.14125789794921875,-0.16041151123046873,8.923189587402343,28.577058823529413
2025-10-20T16:17:18.302462,-11.389312977099237,2.3969465648854964,-9.755725190839694,0.011971008300781249,-0.09816226806640624,9.272743029785156,28.624117647058824
2025-10-20T16:17:18.319305,-4.763358778625954,2.1908396946564888,-10.17557251908397,0.09816226806640624,-0.6081272216796875,9.09796630859375,28.624117647058824
2025-10-20T16:17:18.336140,0.3435114503816794,1.282442748091603,-10.419847328244275,0.29448680419921874,0.17956512451171874,9.133879333496093,28.671176470588236
2025-10-20T16:17:18.353301,2.9389312977099236,0.6030534351145038,-11.687022900763358,-0.028730419921875,0.18435352783203124,9.605537060546874,28.624117647058824
2025-10-20T16:17:18.370151,3.6106870229007635,0.48091603053435117,-9.778625954198473,0.5506663818359374,0.6440402465820312,9.564835632324218,28.671176470588236
2025-10-20T16:17:18.386973,3.366412213740458,0.5877862595419847,-9.229007633587786,0.07422025146484375,0.8475473876953125,9.509768994140625,28.671176470588236
2025-10-20T16:17:18.403790,3.2442748091603053,0.20610687022900764,-9.259541984732824,0.04548983154296875,0.39983167724609375,9.330203869628905,28.718235294117648
2025-10-20T16:17:18.420623,1.7938931297709924,0.3893129770992366,-8.664122137404581,0.2442085693359375,0.3064578125,8.985438830566405,28.48294117647059
2025-10-20T16:17:18.437546,-0.25190839694656486,1.5572519083969465,-7.854961832061068,0.5410895751953124,0.17238251953125,9.406818322753905,28.624117647058824
2025-10-20T16:17:18.454408,-3.3893129770992365,1.1374045801526718,-7.290076335877862,0.21308394775390624,0.055066638183593745,8.980650427246093,28.577058823529413
2025-10-20T16:17:18.471264,-5.030534351145038,3.0916030534351147,-6.282442748091603,0.258573779296875,-0.143652099609375,9.244012609863281,28.53
2025-10-20T16:17:18.488093,-6.66412213740458,2.7938931297709924,-5.854961832061068,0.09337386474609374,-0.2537853759765625,9.234435803222656,28.624117647058824
2025-10-20T16:17:18.504954,-7.00763358778626,2.931297709923664,-5.709923664122138,0.2442085693359375,-0.25139117431640623,9.047688073730468,28.671176470588236
2025-10-20T16:17:18.521784,-6.206106870229007,2.6793893129770994,-5.267175572519084,0.00239420166015625,-0.5458779785156249,9.0021982421875,28.671176470588236
2025-10-20T16:17:18.538611,-6.1679389312977095,3.450381679389313,-4.893129770992366,-0.12449848632812499,-0.7134720947265625,9.030928662109375,28.718235294117648
2025-10-20T16:17:18.555430,-5.541984732824427,2.83206106870229,-4.5038167938931295,0.04548983154296875,-0.699106884765625,9.09796630859375,28.577058823529413
2025-10-20T16:17:18.572248,-4.251908396946565,2.0381679389312977,-4.290076335877862,0.05985504150390625,-0.47165772705078124,9.054870678710937,28.577058823529413
2025-10-20T16:17:18.589064,-2.5877862595419847,0.7786259541984732,-4.236641221374046,0.0909796630859375,-0.3758896606445312,8.971073620605468,28.671176470588236
2025-10-20T16:17:18.605886,-1.8854961832061068,1.1068702290076335,-4.145038167938932,-0.028730419921875,-0.1197100830078125,9.246406811523437,28.718235294117648
2025-10-20T16:17:18.622767,-2.1603053435114505,0.06870229007633588,-4.068702290076335,-0.10773907470703124,0.33518823242187495,8.90643017578125,28.577058823529413
2025-10-20T16:17:18.639634,-4.137404580152672,0.7251908396946565,-3.717557251908397,0.05746083984375,0.8738836059570312,9.490615380859374,28.624117647058824
2025-10-20T16:17:18.656491,-6.748091603053435,-0.24427480916030533,-4.145038167938932,0.3327940307617187,0.47165772705078124,9.253589416503905,28.624117647058824
2025-10-20T16:17:18.673348,-10.106870229007633,0.3816793893129771,-4.145038167938932,0.5793968017578125,0.833182177734375,9.739612353515625,28.577058823529413
2025-10-20T16:17:18.690185,-12.145038167938932,-0.15267175572519084,-4.427480916030534,0.63206923828125,0.3854664672851562,9.227253198242186,28.624117647058824
2025-10-20T16:17:18.707040,-16.068702290076335,1.8931297709923665,-4.6106870229007635,0.47165772705078124,0.63206923828125,9.387664709472656,28.624117647058824
2025-10-20T16:17:18.723881,-18.519083969465647,-0.13740458015267176,-4.99236641221374,0.3902548706054687,0.04548983154296875,9.258377819824219,28.671176470588236
2025-10-20T16:17:18.740716,-22.00763358778626,0.9083969465648855,-5.183206106870229,0.25139117431640623,0.3112462158203125,9.509768994140625,28.577058823529413
2025-10-20T16:17:18.757539,-23.03053435114504,0.8702290076335878,-5.763358778625954,0.39264907226562495,-0.39264907226562495,9.332598071289063,28.624117647058824
2025-10-20T16:17:18.774367,-23.862595419847327,1.5572519083969465,-6.091603053435114,0.33039982910156246,-0.24181436767578124,9.49300958251953,28.577058823529413
2025-10-20T16:17:18.791194,-21.748091603053435,0.8931297709923665,-7.152671755725191,0.17956512451171874,-0.5674257934570313,8.88009395751953,28.577058823529413
2025-10-20T16:17:18.808016,-19.755725190839694,2.2519083969465647,-7.587786259541985,0.143652099609375,-0.8283937744140625,9.047688073730468,28.577058823529413
2025-10-20T16:17:18.824833,-16.083969465648856,0.6030534351145038,-8.65648854961832,0.0047884033203125,-1.0342951171875,8.90643017578125,28.624117647058824
2025-10-20T16:17:18.841661,-12.702290076335878,2.0763358778625953,-8.687022900763358,0.033518823242187495,-1.0199299072265624,9.229647399902344,28.624117647058824
2025-10-20T16:17:18.858513,-8.916030534351146,0.061068702290076333,-8.954198473282442,-0.1197100830078125,-0.8164227661132812,8.911218579101561,28.671176470588236
2025-10-20T16:17:18.875406,-7.801526717557252,0.3282442748091603,-8.763358778625955,0.011971008300781249,-0.9552864624023437,9.088389501953124,28.624117647058824
2025-10-20T16:17:18.892233,-3.763358778625954,-1.2366412213740459,-8.717557251908397,-0.09576806640624999,-0.6631938598632812,9.337386474609374,28.671176470588236
2025-10-20T16:17:18.909087,-3.4885496183206106,-0.7175572519083969,-8.358778625954198,-0.17477672119140625,-0.3327940307617187,9.763554370117188,28.577058823529413
2025-10-20T16:17:18.925920,-3.6717557251908395,-1.7709923664122138,-7.99236641221374,0.2609679809570312,-0.45489831542968745,9.595960253906249,28.624117647058824
2025-10-20T16:17:18.942856,-4.076335877862595,-0.9389312977099237,-7.145038167938932,0.16041151123046873,0.01915361328125,9.785102185058593,28.671176470588236
2025-10-20T16:17:18.959724,-9.198473282442748,-1.0534351145038168,-6.435114503816794,0.4261678955078125,-0.10295067138671875,9.639055883789062,28.624117647058824
2025-10-20T16:17:18.976564,-12.206106870229007,-0.6106870229007634,-5.778625954198473,0.5291185668945312,0.0383072265625,9.53131680908203,28.577058823529413
2025-10-20T16:17:18.993399,-15.251908396946565,0.2824427480916031,-5.480916030534351,0.28730419921875,-0.6655880615234374,9.715670336914062,28.671176470588236
2025-10-20T16:17:19.010229,-18.114503816793892,0.6259541984732825,-4.687022900763359,0.028730419921875,-0.3399766357421875,9.390058911132812,28.624117647058824
2025-10-20T16:17:19.027052,-19.709923664122137,1.251908396946565,-4.305343511450381,0.29927520751953124,-0.9361328491210937,9.749189160156249,28.624117647058824
2025-10-20T16:17:19.043890,-20.50381679389313,0.0,-4.183206106870229,0.1292868896484375,-0.6560112548828124,8.820238916015624,28.48294117647059
2025-10-20T16:17:19.060739,-20.213740458015266,3.8396946564885495,-4.305343511450381,0.16041151123046873,-1.419761584472656,9.275137231445312,28.53
2025-10-20T16:17:19.077574,-18.35114503816794,2.4122137404580153,-4.473282442748092,-0.41898529052734373,-1.2018892333984375,9.030928662109375,28.53
2025-10-20T16:17:19.094399,-15.419847328244275,2.1068702290076335,-4.8396946564885495,-0.13646949462890623,-1.697488977050781,9.172186560058593,28.624117647058824
2025-10-20T16:17:19.111247,-11.083969465648854,1.9083969465648856,-5.33587786259542,-0.7230489013671875,-1.1085153686523437,8.619125976562499,28.671176470588236
2025-10-20T16:17:19.128081,-7.076335877862595,1.0610687022900764,-5.977099236641221,-0.42377369384765623,-1.6735469604492186,9.13627353515625,28.624117647058824
2025-10-20T16:17:19.144907,-3.0763358778625953,0.9847328244274809,-5.99236641221374,-0.6512228515624999,-1.1133037719726562,8.705317236328124,28.624117647058824
2025-10-20T16:17:19.161736,-0.22137404580152673,-0.6259541984732825,-6.251908396946565,0.028730419921875,-1.0917559570312498,9.193734375,28.577058823529413
2025-10-20T16:17:19.178563,2.0381679389312977,-0.7404580152671756,-6.00763358778626,-0.34715924072265625,-0.8714894042968749,9.112331518554686,28.671176470588236
2025-10-20T16:17:19.195428,2.5267175572519083,-1.9083969465648856,-6.129770992366412,0.08858546142578125,-0.7158662963867187,9.442731347656249,28.671176470588236
2025-10-20T16:17:19.212276,2.267175572519084,-0.5648854961832062,-5.717557251908397,0.3016694091796875,-0.9911994873046874,9.720458740234374,28.718235294117648
2025-10-20T16:17:19.229106,1.3053435114503817,-1.0610687022900764,-5.106870229007634,0.5722141967773438,-0.40940848388671874,9.600748657226562,28.671176470588236
2025-10-20T16:17:19.245954,-1.0763358778625953,0.5114503816793893,-4.450381679389313,0.373495458984375,-0.842758984375,9.610325463867188,28.671176470588236
2025-10-20T16:17:19.262804,-4.977099236641221,1.5725190839694656,-5.8396946564885495,0.7278373046875,-0.5722141967773438,9.627084875488281,28.624117647058824
2025-10-20T16:17:19.279630,-8.473282442748092,1.2442748091603053,-2.900763358778626,0.7062894897460937,-1.139639990234375,9.7683427734375,28.671176470588236
2025-10-20T16:17:19.296465,-11.572519083969466,3.6106870229007635,-2.6946564885496183,0.5243301635742187,-0.8451531860351562,9.550470422363281,28.671176470588236
2025-10-20T16:17:19.313321,-12.427480916030534,0.21374045801526717,-2.4656488549618323,0.031124621582031248,-1.2425906616210938,9.53131680908203,28.624117647058824
2025-10-20T16:17:19.330157,-12.98473282442748,3.1908396946564888,-2.366412213740458,0.22744915771484372,-1.68551796875,8.91840118408203,28.624117647058824
2025-10-20T16:17:19.346982,-11.122137404580153,2.954198473282443,-2.648854961832061,-0.565031591796875,-1.7669208251953124,9.047688073730468,28.671176470588236
2025-10-20T16:17:19.363805,-11.549618320610687,4.106870229007634,-2.7099236641221376,-0.35673604736328124,-1.8052280517578123,9.014169250488282,28.577058823529413
2025-10-20T16:17:19.380629,-7.717557251908397,2.9770992366412212,-2.732824427480916,-0.699106884765625,-1.93451494140625,8.980650427246093,28.624117647058824
2025-10-20T16:17:19.397454,-4.793893129770993,3.2519083969465647,-2.763358778625954,-0.2920926025390625,-1.93451494140625,9.07163009033203,28.624117647058824
2025-10-20T16:17:19.414279,-0.9083969465648855,1.5267175572519085,-2.9770992366412212,-0.6296750366210937,-1.8195932617187498,8.765172277832031,28.671176470588236
2025-10-20T16:17:19.431100,2.6259541984732824,0.6564885496183206,-2.7251908396946565,-0.258573779296875,-1.455674609375,8.74601866455078,28.671176470588236
2025-10-20T16:17:19.447966,4.732824427480916,0.46564885496183206,-2.5572519083969465,-0.33039982910156246,-1.1109095703125,9.222464794921875,28.624117647058824
2025-10-20T16:17:19.464968,4.923664122137405,-0.48091603053435117,-1.8244274809160306,-0.02154781494140625,-0.7015010864257812,9.332598071289063,28.624117647058824
2025-10-20T16:17:19.481837,2.3206106870229006,0.13740458015267176,-1.4274809160305344,0.08379705810546874,-0.9696516723632812,9.701305126953125,28.671176470588236
2025-10-20T16:17:19.498690,0.3282442748091603,-0.5267175572519084,-0.9923664122137404,0.29927520751953124,-0.6919242797851562,9.521740002441407,28.577058823529413
2025-10-20T16:17:19.515572,-1.8473282442748091,-0.8778625954198473,-0.3816793893129771,0.258573779296875,-0.9935936889648437,9.447519750976562,28.624117647058824
2025-10-20T16:17:19.532410,-3.4732824427480917,-0.6335877862595419,0.22900763358778625,0.4644751220703125,-0.737414111328125,9.399635717773437,28.671176470588236
2025-10-20T16:17:19.549240,-7.297709923664122,0.3511450381679389,0.9312977099236641,0.24899697265624998,-1.1755530151367186,9.753977563476562,28.624117647058824
2025-10-20T16:17:19.566069,-12.129770992366412,0.17557251908396945,2.236641221374046,0.047884033203124995,-0.7924807495117187,9.387664709472656,28.624117647058824
