timestamp,gyro_x,gyro_y,gyro_z,acc_x,acc_y,acc_z,temp
2025-10-20T16:32:33.537203,6.809160305343512,0.22900763358778625,-2.572519083969466,-0.15562310791015624,-1.2138602416992186,9.414000927734374,29.941764705882356
2025-10-20T16:32:33.554469,6.152671755725191,0.32061068702290074,-2.648854961832061,-0.0047884033203125,-1.3359645263671873,9.392453112792968,30.03588235294118
2025-10-20T16:32:33.571379,5.778625954198473,0.33587786259541985,-2.572519083969466,-0.24181436767578124,-0.9313444458007812,9.41639512939453,29.988823529411768
2025-10-20T16:32:33.588274,4.7251908396946565,0.45038167938931295,-2.5114503816793894,-0.16998831787109375,-1.16837041015625,9.445125549316407,30.03588235294118
2025-10-20T16:32:33.605119,3.4885496183206106,0.8473282442748091,-2.3893129770992365,-0.201112939453125,-0.9792284790039062,9.526528405761718,29.988823529411768
2025-10-20T16:32:33.621939,2.030534351145038,0.8778625954198473,-2.2442748091603053,-0.201112939453125,-0.9121908325195311,9.514557397460937,29.988823529411768
2025-10-20T16:32:33.638787,0.8320610687022901,1.083969465648855,-2.1755725190839694,-0.2537853759765625,-0.8643067993164062,9.473855969238281,30.03588235294118
2025-10-20T16:32:33.655637,-0.5114503816793893,1.213740458015267,-2.045801526717557,-0.18914193115234373,-0.8355763793945312,9.550470422363281,29.89470588235294
2025-10-20T16:32:33.672482,-1.6488549618320612,1.2061068702290076,-1.8015267175572518,-0.22266075439453123,-0.7326257080078125,9.610325463867188,29.988823529411768
2025-10-20T16:32:33.689323,-3.4885496183206106,1.5648854961832062,-1.618320610687023,-0.04548983154296875,-0.7924807495117187,9.471461767578125,29.941764705882356
2025-10-20T16:32:33.706151,-4.465648854961832,1.7251908396946565,-1.5725190839694656,-0.10295067138671875,-0.7445967163085937,9.610325463867188,29.988823529411768
2025-10-20T16:32:33.722984,-5.908396946564886,1.8778625954198473,-1.3587786259541985,-0.03591302490234375,-0.6943184814453125,9.516951599121093,29.988823529411768
2025-10-20T16:32:33.739815,-6.343511450381679,1.6946564885496183,-1.3740458015267176,-0.13407529296874998,-0.6967126831054687,9.53131680908203,29.941764705882356
2025-10-20T16:32:33.756694,-6.847328244274809,1.7557251908396947,-1.366412213740458,0.09337386474609374,-0.6272808349609375,9.5001921875,29.988823529411768
2025-10-20T16:32:33.773575,-7.022900763358779,1.7557251908396947,-1.3435114503816794,0.07422025146484375,-0.8379705810546875,9.512163195800781,30.03588235294118
2025-10-20T16:32:33.790455,-7.305343511450381,1.8244274809160306,-1.2671755725190839,0.062249243164062495,-0.8451531860351562,9.399635717773437,29.988823529411768
2025-10-20T16:32:33.807329,-7.0,0.030534351145038167,-1.549618320610687,0.03591302490234375,-0.93852705078125,9.220070593261719,29.988823529411768
2025-10-20T16:32:33.824188,-6.488549618320611,3.877862595419847,-0.007633587786259542,0.0383072265625,-0.9720458740234375,9.366116894531249,30.130000000000003
2025-10-20T16:32:33.841031,-5.893129770992366,0.03816793893129771,-1.916030534351145,0.062249243164062495,-1.0438719238281249,9.239224206542968,29.988823529411768
2025-10-20T16:32:33.857888,-4.893129770992366,1.786259541984733,-2.33587786259542,0.01915361328125,-1.0821791503906248,9.294290844726563,29.988823529411768
2025-10-20T16:32:33.874743,-3.885496183206107,1.7938931297709924,-2.7709923664122136,0.08140285644531249,-0.9744400756835937,9.255983618164063,30.03588235294118
2025-10-20T16:32:33.891631,-3.099236641221374,1.6717557251908397,-3.2442748091603053,0.26336218261718747,-0.8690952026367187,9.18655177001953,29.988823529411768
2025-10-20T16:32:33.908494,-2.7480916030534353,1.6564885496183206,-3.6106870229007635,0.0526724365234375,-0.6823474731445313,9.303867651367186,30.03588235294118
2025-10-20T16:32:33.925339,-3.0076335877862594,1.4427480916030535,-3.8091603053435112,0.1149216796875,-0.6296750366210937,9.366116894531249,29.988823529411768
2025-10-20T16:32:33.942182,-4.3893129770992365,1.6946564885496183,-3.549618320610687,0.12210428466796874,-0.5746083984375,9.394847314453125,30.03588235294118
2025-10-20T16:32:33.959065,-3.984732824427481,1.5419847328244274,-3.3206106870229006,0.181959326171875,-0.5003881469726562,9.4618849609375,30.03588235294118
2025-10-20T16:32:33.975972,-8.007633587786259,1.6717557251908397,-3.2595419847328246,0.13168109130859373,-0.43574470214843747,9.373299499511718,29.941764705882356
2025-10-20T16:32:33.992847,-9.351145038167939,1.6717557251908397,-3.3282442748091605,0.16519991455078123,-0.4740519287109375,9.22485899658203,29.988823529411768
2025-10-20T16:32:34.009717,-10.358778625954198,1.83206106870229,-3.2213740458015265,0.1867477294921875,-0.5985504150390625,9.260772021484375,29.89470588235294
2025-10-20T16:32:34.026574,-10.877862595419847,1.6641221374045803,-3.183206106870229,0.143652099609375,-0.5746083984375,9.287108239746093,30.03588235294118
2025-10-20T16:32:34.043432,-11.488549618320612,1.900763358778626,-3.0,0.07900865478515624,-0.6703764648437499,9.234435803222656,29.988823529411768
2025-10-20T16:32:34.060293,-11.793893129770993,1.7557251908396947,-3.1755725190839694,0.07900865478515624,-0.7254431030273437,9.251195214843749,30.03588235294118
2025-10-20T16:32:34.077144,-11.648854961832061,1.633587786259542,-3.122137404580153,0.0,-0.8020575561523438,9.17458076171875,29.988823529411768
2025-10-20T16:32:34.094017,-10.48091603053435,1.4274809160305344,-3.236641221374046,0.09337386474609374,-0.8188169677734375,8.93755479736328,29.988823529411768
2025-10-20T16:32:34.110875,-8.67175572519084,1.4274809160305344,-3.3893129770992365,0.02154781494140625,-0.8834604125976562,9.088389501953124,30.03588235294118
2025-10-20T16:32:34.127721,-6.908396946564886,0.916030534351145,-3.4122137404580153,-0.01915361328125,-0.8714894042968749,9.045293872070312,29.988823529411768
2025-10-20T16:32:34.144582,-5.068702290076335,0.7251908396946565,-3.6717557251908395,-0.07422025146484375,-0.8451531860351562,9.07163009033203,29.941764705882356
2025-10-20T16:32:34.161477,-3.213740458015267,0.3435114503816794,-3.6564885496183206,-0.02633621826171875,-0.8667010009765624,9.09796630859375,29.988823529411768
2025-10-20T16:32:34.178357,-1.4045801526717556,-1.9465648854961832,-3.7022900763358777,0.016759411621093748,-0.7302315063476562,9.112331518554686,30.08294117647059
2025-10-20T16:32:34.195219,0.5038167938931297,-0.061068702290076333,-3.8396946564885495,0.0718260498046875,-0.7637503295898437,9.066841687011719,30.03588235294118
2025-10-20T16:32:34.212080,2.366412213740458,-0.366412213740458,-4.106870229007634,0.1388636962890625,-0.47884033203125,9.030928662109375,29.988823529411768
2025-10-20T16:32:34.228939,4.015267175572519,-0.4961832061068702,-4.122137404580153,-0.13168109130859373,-0.6416460449218749,9.0788126953125,30.130000000000003
2025-10-20T16:32:34.245789,5.1679389312977095,-0.7099236641221374,-3.946564885496183,-0.0047884033203125,-0.612915625,9.1554271484375,29.988823529411768
2025-10-20T16:32:34.262647,5.984732824427481,-0.6870229007633588,-4.061068702290076,0.05027823486328125,-0.6536170532226562,9.208099584960937,30.03588235294118
2025-10-20T16:32:34.279499,6.435114503816794,-0.6717557251908397,-4.061068702290076,0.00239420166015625,-0.7350199096679687,9.311050256347656,30.03588235294118
2025-10-20T16:32:34.296348,7.099236641221374,-0.5648854961832062,-4.221374045801527,0.0143652099609375,-0.6919242797851562,9.050082275390624,29.988823529411768
2025-10-20T16:32:34.313196,7.67175572519084,-0.7404580152671756,-4.343511450381679,-0.062249243164062495,-0.6655880615234374,9.176974963378905,30.03588235294118
2025-10-20T16:32:34.330043,8.213740458015268,-0.6717557251908397,-4.374045801526718,-0.02633621826171875,-0.737414111328125,9.255983618164063,30.03588235294118
2025-10-20T16:32:34.346890,8.580152671755725,-0.549618320610687,-4.549618320610687,-0.009576806640625,-0.6943184814453125,9.287108239746093,29.988823529411768
2025-10-20T16:32:34.363749,8.305343511450381,-0.4732824427480916,-4.8320610687022905,-0.00718260498046875,-0.8044517578125,9.411606726074218,30.08294117647059
2025-10-20T16:32:34.380829,8.01526717557252,-0.29770992366412213,-4.977099236641221,-0.031124621582031248,-0.82360537109375,9.311050256347656,30.03588235294118
2025-10-20T16:32:34.397779,7.648854961832061,-0.1984732824427481,-5.145038167938932,-0.028730419921875,-1.0103531005859374,9.215282189941405,29.941764705882356
2025-10-20T16:32:34.414640,7.763358778625954,0.09923664122137404,-5.305343511450381,0.0143652099609375,-1.1635820068359375,9.066841687011719,29.988823529411768
2025-10-20T16:32:34.431497,8.068702290076336,0.183206106870229,-5.7251908396946565,-0.055066638183593745,-1.1563994018554686,9.311050256347656,30.03588235294118
2025-10-20T16:32:34.448354,8.076335877862595,0.44274809160305345,-5.9465648854961835,-0.15322890625,-1.1827356201171875,9.220070593261719,29.941764705882356
2025-10-20T16:32:34.465276,7.351145038167939,0.6412213740458015,-5.8396946564885495,-0.13646949462890623,-1.0414777221679687,9.327809667968749,30.08294117647059
2025-10-20T16:32:34.482154,6.091603053435114,0.8549618320610687,-5.702290076335878,-0.011971008300781249,-0.9097966308593749,9.485826977539062,29.988823529411768
2025-10-20T16:32:34.501036,4.244274809160306,1.183206106870229,-5.557251908396947,-0.01915361328125,-0.8403647827148437,9.588777648925781,30.03588235294118
2025-10-20T16:32:34.518686,2.213740458015267,1.0381679389312977,-5.427480916030534,-0.10773907470703124,-0.7996633544921875,9.3852705078125,29.988823529411768
2025-10-20T16:32:34.535614,0.12213740458015267,1.16793893129771,-5.206106870229007,-0.07422025146484375,-0.8667010009765624,9.387664709472656,29.941764705882356
2025-10-20T16:32:34.552483,-1.618320610687023,1.1908396946564885,-4.885496183206107,-0.09816226806640624,-0.9169792358398436,9.363722692871093,29.988823529411768
2025-10-20T16:32:34.569341,-3.381679389312977,1.5038167938931297,-4.572519083969466,-0.1005564697265625,-0.928950244140625,9.41639512939453,30.03588235294118
2025-10-20T16:32:34.586128,-5.32824427480916,1.6870229007633588,-4.267175572519084,-0.06703764648437499,-1.0007762939453124,9.390058911132812,30.03588235294118
2025-10-20T16:32:34.602950,-6.931297709923665,1.6564885496183206,-3.9923664122137406,-0.0909796630859375,-1.0103531005859374,9.459490759277344,29.988823529411768
2025-10-20T16:32:34.619780,-8.198473282442748,1.7938931297709924,-3.83206106870229,-0.086191259765625,-0.9911994873046874,9.41639512939453,29.988823529411768
2025-10-20T16:32:34.636604,-9.068702290076336,1.8396946564885497,-3.49618320610687,-0.05746083984375,-1.0175357055664063,9.306261853027344,29.941764705882356
2025-10-20T16:32:34.653427,-9.84732824427481,1.748091603053435,-3.267175572519084,-0.17238251953125,-1.0630255371093749,9.34696328125,30.03588235294118
2025-10-20T16:32:34.670265,-10.282442748091603,1.7633587786259541,-3.099236641221374,-0.13407529296874998,-1.1085153686523437,9.229647399902344,29.988823529411768
2025-10-20T16:32:34.687106,-10.572519083969466,1.816793893129771,-2.786259541984733,-0.16519991455078123,-1.0438719238281249,9.289502441406249,29.988823529411768
2025-10-20T16:32:34.703947,-10.374045801526718,1.4351145038167938,-2.5343511450381677,-0.11013327636718749,-1.024718310546875,9.222464794921875,30.03588235294118
2025-10-20T16:32:34.720800,-10.236641221374045,1.4809160305343512,-2.5801526717557253,-0.11731588134765625,-0.9864110839843749,9.279925634765624,30.08294117647059
2025-10-20T16:32:34.737653,-9.755725190839694,1.2213740458015268,-2.2748091603053435,-0.12689268798828124,-0.8858546142578124,9.191340173339842,29.941764705882356
2025-10-20T16:32:34.754498,-9.129770992366412,1.0076335877862594,-2.2442748091603053,-0.086191259765625,-0.9097966308593749,9.315838659667968,30.03588235294118
2025-10-20T16:32:34.771342,-8.648854961832061,0.7022900763358778,-1.8854961832061068,-0.06464344482421874,-0.8068459594726562,9.373299499511718,29.89470588235294
2025-10-20T16:32:34.788206,-8.259541984732824,0.5648854961832062,-1.916030534351145,-0.06464344482421874,-0.7134720947265625,9.229647399902344,29.941764705882356
2025-10-20T16:32:34.805057,-7.66412213740458,0.3893129770992366,-1.8015267175572518,0.08140285644531249,-0.737414111328125,9.088389501953124,30.03588235294118
2025-10-20T16:32:34.821907,-6.748091603053435,0.2595419847328244,-1.6488549618320612,0.06703764648437499,-0.6847416748046875,9.260772021484375,29.988823529411768
2025-10-20T16:32:34.838753,-5.625954198473282,-0.015267175572519083,-1.6412213740458015,0.12210428466796874,-0.7134720947265625,9.282319836425781,30.03588235294118
2025-10-20T16:32:34.855594,-4.488549618320611,-0.04580152671755725,-1.5572519083969465,0.19393033447265623,-0.7445967163085937,9.313444458007812,29.941764705882356
2025-10-20T16:32:34.872448,-3.2442748091603053,-0.12213740458015267,-1.4274809160305344,0.201112939453125,-0.6919242797851562,9.361328491210937,30.08294117647059
2025-10-20T16:32:34.889298,-2.045801526717557,-0.2824427480916031,-1.4809160305343512,0.36152445068359373,-0.7805097412109374,9.41639512939453,30.03588235294118
2025-10-20T16:32:34.906145,-0.6412213740458015,-0.31297709923664124,-1.5572519083969465,0.3902548706054687,-0.7781155395507812,9.327809667968749,29.89470588235294
2025-10-20T16:32:34.922990,0.8854961832061069,-0.5572519083969466,-1.3511450381679388,0.4213794921875,-0.7015010864257812,9.315838659667968,29.988823529411768
2025-10-20T16:32:34.939835,2.3740458015267176,-0.42748091603053434,-1.251908396946565,0.354341845703125,-0.8738836059570312,9.34696328125,29.941764705882356
2025-10-20T16:32:34.956673,3.7251908396946565,-0.48854961832061067,-1.297709923664122,0.3806780639648437,-0.7134720947265625,9.361328491210937,29.988823529411768
2025-10-20T16:32:34.973520,5.145038167938932,-0.5038167938931297,-1.4045801526717556,0.354341845703125,-0.7254431030273437,9.356540087890625,29.988823529411768
2025-10-20T16:32:34.990366,6.190839694656488,-0.48091603053435117,-1.366412213740458,0.3064578125,-0.6943184814453125,9.464279162597656,30.03588235294118
2025-10-20T16:32:35.007211,7.038167938931298,-0.5419847328244275,-1.2900763358778626,0.29448680419921874,-0.612915625,9.342174877929686,29.988823529411768
2025-10-20T16:32:35.024058,8.076335877862595,-0.7709923664122137,-1.3740458015267176,0.2609679809570312,-0.6536170532226562,9.323021264648437,30.08294117647059
2025-10-20T16:32:35.040905,8.763358778625955,-1.0381679389312977,-1.2213740458015268,0.3016694091796875,-0.6847416748046875,9.397241516113281,30.03588235294118
2025-10-20T16:32:35.057751,9.396946564885496,-1.0610687022900764,-1.2366412213740459,0.23702596435546874,-0.6416460449218749,9.361328491210937,29.988823529411768
2025-10-20T16:32:35.074605,9.67175572519084,-0.9923664122137404,-1.2213740458015268,0.2657563842773437,-0.6416460449218749,9.3852705078125,29.988823529411768
2025-10-20T16:32:35.091452,9.412213740458014,-1.297709923664122,-1.3511450381679388,0.1771709228515625,-0.6464344482421874,9.459490759277344,30.03588235294118
2025-10-20T16:32:35.108292,9.450381679389313,-1.0534351145038168,-1.16793893129771,0.26815058593749996,-0.6296750366210937,9.373299499511718,30.08294117647059
2025-10-20T16:32:35.125138,8.885496183206106,-1.1374045801526718,-1.1374045801526718,0.2705447875976562,-0.6607996582031249,9.363722692871093,29.988823529411768
2025-10-20T16:32:35.141980,8.48091603053435,-1.0381679389312977,-1.1908396946564885,0.062249243164062495,-0.6177040283203125,9.406818322753905,29.941764705882356
2025-10-20T16:32:35.158823,7.694656488549619,-1.251908396946565,-1.183206106870229,0.016759411621093748,-0.6248866333007812,9.612719665527344,29.89470588235294
2025-10-20T16:32:35.175669,6.969465648854962,-1.0305343511450382,-1.0,-0.02633621826171875,-0.6153098266601562,9.368511096191405,29.988823529411768
2025-10-20T16:32:35.192513,5.816793893129771,-1.1908396946564885,-1.282442748091603,-0.12449848632812499,-0.5746083984375,9.279925634765624,30.03588235294118
2025-10-20T16:32:35.209358,4.6183206106870225,-1.16793893129771,-1.4198473282442747,-0.1149216796875,-0.5793968017578125,9.313444458007812,29.988823529411768
2025-10-20T16:32:35.226246,3.427480916030534,-1.3053435114503817,-1.549618320610687,-0.16998831787109375,-0.5219359619140624,9.363722692871093,29.941764705882356
2025-10-20T16:32:35.243172,2.618320610687023,-1.3893129770992367,-1.6717557251908397,-0.181959326171875,-0.5817910034179687,9.260772021484375,29.988823529411768
2025-10-20T16:32:35.260024,1.7557251908396947,-1.6641221374045803,-0.10687022900763359,-0.2154781494140625,-0.5530605834960938,9.205705383300781,30.08294117647059
2025-10-20T16:32:35.276875,0.6641221374045801,-1.5877862595419847,-2.3740458015267176,-0.24899697265624998,-0.6416460449218749,9.188945971679686,30.08294117647059
2025-10-20T16:32:35.293724,-0.3969465648854962,-1.8549618320610688,-2.4885496183206106,-0.3016694091796875,-0.6584054565429687,9.220070593261719,29.988823529411768
2025-10-20T16:32:35.310566,-1.3206106870229009,-1.9083969465648856,-2.7404580152671754,-0.12210428466796874,-0.737414111328125,9.275137231445312,30.130000000000003
2025-10-20T16:32:35.327421,-2.1374045801526718,-1.8854961832061068,-2.8244274809160306,-0.00239420166015625,-0.833182177734375,9.334992272949219,29.988823529411768
2025-10-20T16:32:35.344268,-2.786259541984733,-1.6717557251908397,-2.8702290076335877,0.05746083984375,-0.9145850341796874,9.244012609863281,29.941764705882356
2025-10-20T16:32:35.361112,-3.7099236641221376,-1.6412213740458015,-2.786259541984733,-0.02633621826171875,-0.8068459594726562,9.1554271484375,30.03588235294118
2025-10-20T16:32:35.377953,-4.366412213740458,-1.4885496183206106,-2.6793893129770994,0.05027823486328125,-0.8307879760742187,9.210493786621093,29.988823529411768
2025-10-20T16:32:35.394796,-5.198473282442748,-1.3435114503816794,-2.427480916030534,0.02633621826171875,-0.814028564453125,9.351751684570312,29.941764705882356
2025-10-20T16:32:35.411648,-6.267175572519084,-1.0916030534351144,-2.114503816793893,0.13646949462890623,-0.6967126831054687,9.330203869628905,29.988823529411768
2025-10-20T16:32:35.428495,-7.3893129770992365,-0.8702290076335878,-2.0763358778625953,0.12689268798828124,-0.7637503295898437,9.289502441406249,30.08294117647059
2025-10-20T16:32:35.445341,-7.908396946564886,-0.9236641221374046,-1.816793893129771,0.055066638183593745,-0.7445967163085937,9.344569079589844,29.941764705882356
2025-10-20T16:32:35.462182,-8.076335877862595,-0.6030534351145038,-1.6564885496183206,0.05027823486328125,-0.689530078125,9.277531433105468,29.988823529411768
2025-10-20T16:32:35.479031,-8.419847328244275,-0.5190839694656488,-1.297709923664122,0.09576806640624999,-0.679953271484375,9.414000927734374,30.130000000000003
2025-10-20T16:32:35.495875,-8.297709923664122,-0.35877862595419846,-1.3129770992366412,0.05746083984375,-0.6775590698242188,9.406818322753905,30.03588235294118
2025-10-20T16:32:35.512717,-7.969465648854962,-0.1450381679389313,-1.1755725190839694,0.08140285644531249,-0.7613561279296874,9.255983618164063,30.08294117647059
2025-10-20T16:32:35.529790,-7.580152671755725,-0.12213740458015267,-1.1221374045801527,0.076614453125,-0.6248866333007812,9.318232861328125,29.988823529411768
2025-10-20T16:32:35.546667,-6.938931297709924,0.16793893129770993,-0.9389312977099237,0.10773907470703124,-0.55545478515625,9.248801013183593,30.03588235294118
2025-10-20T16:32:35.563510,-6.068702290076335,0.2900763358778626,-0.816793893129771,0.15322890625,-0.4213794921875,9.337386474609374,30.08294117647059
2025-10-20T16:32:35.580373,-5.3893129770992365,0.48091603053435117,-0.732824427480916,0.105344873046875,-0.4572925170898437,9.287108239746093,29.988823529411768
2025-10-20T16:32:35.597226,-4.488549618320611,0.44274809160305345,-0.816793893129771,0.07422025146484375,-0.3280056274414062,9.428366137695312,30.03588235294118
2025-10-20T16:32:35.614067,-5.854961832061068,0.5801526717557252,-0.7022900763358778,0.06943184814453125,-0.28969840087890625,9.361328491210937,29.89470588235294
2025-10-20T16:32:35.630913,-3.2519083969465647,0.7480916030534351,-0.7938931297709924,0.02633621826171875,-0.16759411621093748,9.3086560546875,29.941764705882356
2025-10-20T16:32:35.647752,-2.595419847328244,0.6870229007633588,-0.9312977099236641,0.0526724365234375,-0.1388636962890625,9.212887988281249,29.941764705882356
2025-10-20T16:32:35.664602,-1.549618320610687,0.8396946564885496,-0.8396946564885496,0.05746083984375,-0.10773907470703124,9.411606726074218,29.988823529411768
2025-10-20T16:32:35.681456,-1.2366412213740459,0.9389312977099237,-0.7557251908396947,0.07900865478515624,-0.040701428222656245,9.497797985839844,29.941764705882356
2025-10-20T16:32:35.698297,-0.7862595419847328,0.6793893129770993,-0.6030534351145038,-0.009576806640625,0.08858546142578125,9.423577734375,30.03588235294118
2025-10-20T16:32:35.715137,-1.099236641221374,0.7633587786259542,-0.5114503816793893,0.00718260498046875,0.12210428466796874,9.629479077148437,29.988823529411768
2025-10-20T16:32:35.731972,-1.2595419847328244,0.4580152671755725,-0.4732824427480916,-0.023942016601562498,0.15562310791015624,9.404424121093749,30.03588235294118
2025-10-20T16:32:35.748813,-1.381679389312977,0.5954198473282443,-0.25190839694656486,-0.1292868896484375,0.13646949462890623,9.406818322753905,29.988823529411768
2025-10-20T16:32:35.765659,-1.7709923664122138,0.3893129770992366,-0.3893129770992366,-0.1484405029296875,0.08379705810546874,9.315838659667968,29.988823529411768
2025-10-20T16:32:35.782508,-1.633587786259542,0.45038167938931295,-0.25190839694656486,-0.12689268798828124,-0.047884033203124995,9.311050256347656,29.941764705882356
2025-10-20T16:32:35.799353,-1.1908396946564885,0.48854961832061067,-0.6259541984732825,-0.18435352783203124,-0.24899697265624998,9.275137231445312,29.988823529411768
2025-10-20T16:32:35.816207,-0.7557251908396947,0.35877862595419846,-0.7786259541984732,-0.17956512451171874,-0.36391865234375,9.284714038085937,29.941764705882356
2025-10-20T16:32:35.833055,-0.2366412213740458,0.42748091603053434,-0.8549618320610687,-0.21308394775390624,-0.6727706665039062,9.45470235595703,30.03588235294118
2025-10-20T16:32:35.849899,0.5648854961832062,0.5038167938931297,-0.9312977099236641,-0.43574470214843747,-0.8906430175781249,9.318232861328125,29.988823529411768
2025-10-20T16:32:35.866748,1.9083969465648856,0.32061068702290074,-1.1068702290076335,-0.3950432739257812,-0.9217676391601562,9.126696728515624,30.03588235294118
2025-10-20T16:32:35.883593,3.1068702290076335,0.183206106870229,-1.1374045801526718,-0.4333505004882812,-1.2665326782226562,9.160215551757812,29.89470588235294
2025-10-20T16:32:35.900432,4.190839694656488,-0.2595419847328244,-1.3511450381679388,-0.36631285400390623,-1.4006079711914061,9.323021264648437,30.08294117647059
2025-10-20T16:32:35.917282,4.870229007633588,-0.13740458015267176,-1.5801526717557253,-0.11013327636718749,-1.254561669921875,9.445125549316407,30.03588235294118
2025-10-20T16:32:35.934127,4.908396946564886,0.0916030534351145,-1.4351145038167938,0.10773907470703124,-0.9265560424804687,9.169792358398437,29.988823529411768
2025-10-20T16:32:35.950965,4.442748091603053,0.6564885496183206,-1.5114503816793894,0.16998831787109375,-0.7230489013671875,9.062053283691405,29.89470588235294
2025-10-20T16:32:35.967804,3.8931297709923665,1.16793893129771,-0.9541984732824428,0.3591302490234375,-0.7805097412109374,8.951920007324219,30.130000000000003
2025-10-20T16:32:35.984650,2.877862595419847,1.816793893129771,-0.9312977099236641,0.603338818359375,-0.8020575561523438,9.04050546875,29.988823529411768
2025-10-20T16:32:36.001493,2.2900763358778624,2.3206106870229006,-0.7022900763358778,0.8547299926757812,-0.6416460449218749,9.006986645507812,29.988823529411768
2025-10-20T16:32:36.018339,1.2748091603053435,2.7022900763358777,-0.1450381679389313,0.5315127685546874,-0.8667010009765624,9.117119921875,30.03588235294118
2025-10-20T16:32:36.035184,0.37404580152671757,2.8702290076335877,0.3435114503816794,0.4381389038085937,-1.2210428466796874,8.765172277832031,29.988823529411768
2025-10-20T16:32:36.052028,0.3511450381679389,2.3206106870229006,0.3893129770992366,0.08379705810546874,-1.0654197387695312,8.91840118408203,29.988823529411768
2025-10-20T16:32:36.068925,1.183206106870229,1.633587786259542,0.6183206106870229,0.040701428222656245,-1.1228805786132812,8.98304462890625,29.941764705882356
2025-10-20T16:32:36.085861,1.534351145038168,0.6641221374045801,0.40458015267175573,-0.062249243164062495,-1.3120225097656248,9.323021264648437,29.941764705882356
2025-10-20T16:32:36.102711,1.0229007633587786,0.16030534351145037,0.2366412213740458,-0.09576806640624999,-1.254561669921875,9.390058911132812,29.988823529411768
2025-10-20T16:32:36.119561,-0.09923664122137404,-0.24427480916030533,0.4961832061068702,-0.14604630126953125,-1.3479355346679687,9.251195214843749,29.988823529411768
2025-10-20T16:32:36.136412,-1.3358778625954197,-0.16030534351145037,0.22137404580152673,-0.1867477294921875,-1.0654197387695312,9.26316622314453,29.941764705882356
2025-10-20T16:32:36.153285,-2.4656488549618323,-0.22900763358778625,0.16793893129770993,-0.1292868896484375,-0.7254431030273437,9.265560424804686,29.89470588235294
2025-10-20T16:32:36.170147,-4.145038167938932,0.5801526717557252,-0.05343511450381679,0.02154781494140625,-0.5793968017578125,9.373299499511718,29.941764705882356
2025-10-20T16:32:36.186993,-4.068702290076335,1.4198473282442747,-0.03816793893129771,0.04548983154296875,-0.5267243652343749,9.60793126220703,29.988823529411768
2025-10-20T16:32:36.203839,-8.687022900763358,2.267175572519084,-0.061068702290076333,0.033518823242187495,-0.5051765502929687,9.715670336914062,29.988823529411768
2025-10-20T16:32:36.220679,-9.854961832061068,3.427480916030534,0.08396946564885496,0.07422025146484375,-0.430956298828125,9.6151138671875,30.03588235294118
2025-10-20T16:32:36.237522,-14.877862595419847,5.854961832061068,0.17557251908396945,0.01915361328125,-0.39264907226562495,9.552864624023437,30.08294117647059
2025-10-20T16:32:36.254372,-16.900763358778626,4.0458015267175576,0.03816793893129771,-0.05746083984375,-0.41898529052734373,9.586383447265625,29.988823529411768
2025-10-20T16:32:36.271218,-17.83206106870229,3.954198473282443,-0.16793893129770993,-0.06703764648437499,-0.5458779785156249,9.64623848876953,29.941764705882356
2025-10-20T16:32:36.288073,-18.15267175572519,3.450381679389313,-0.45038167938931295,-0.08379705810546874,-0.6488286499023437,9.65342109375,30.08294117647059
2025-10-20T16:32:36.304912,-18.458015267175572,2.6564885496183206,-0.6564885496183206,-0.0143652099609375,-0.8475473876953125,9.610325463867188,29.988823529411768
2025-10-20T16:32:36.321754,-18.99236641221374,2.1755725190839694,-0.29770992366412213,-0.14604630126953125,-0.9648632690429687,9.581595043945311,29.941764705882356
2025-10-20T16:32:36.338596,-18.87786259541985,1.717557251908397,-0.3282442748091603,0.06464344482421874,-1.0582371337890624,9.514557397460937,30.08294117647059
2025-10-20T16:32:36.355428,-17.885496183206108,1.015267175572519,-0.48854961832061067,0.12210428466796874,-1.1444283935546875,9.34696328125,29.941764705882356
2025-10-20T16:32:36.372273,-15.65648854961832,0.5419847328244275,-0.5725190839694656,0.1197100830078125,-1.2713210815429687,9.37808790283203,30.03588235294118
2025-10-20T16:32:36.389123,-13.419847328244275,0.19083969465648856,-0.7709923664122137,0.22266075439453123,-1.2808978881835937,9.414000927734374,29.988823529411768
2025-10-20T16:32:36.405979,-11.412213740458014,0.26717557251908397,-0.6641221374045801,0.39264907226562495,-1.2593500732421874,9.423577734375,29.941764705882356
2025-10-20T16:32:36.422833,-10.366412213740459,0.5038167938931297,-0.7251908396946565,0.3806780639648437,-1.2330138549804688,9.392453112792968,29.988823529411768
2025-10-20T16:32:36.439684,-9.870229007633588,0.5343511450381679,-0.5572519083969466,0.5099649536132812,-1.2401964599609374,9.327809667968749,30.03588235294118
2025-10-20T16:32:36.456526,-8.816793893129772,0.9465648854961832,-0.816793893129771,0.44532150878906246,-1.2737152832031249,9.1554271484375,29.941764705882356
2025-10-20T16:32:36.473365,-7.351145038167939,0.7099236641221374,-1.0305343511450382,0.4070142822265625,-1.1947066284179686,9.210493786621093,29.988823529411768
2025-10-20T16:32:36.490215,-5.977099236641221,0.40458015267175573,-1.4198473282442747,0.3184288208007812,-1.0797849487304687,9.526528405761718,29.988823529411768
2025-10-20T16:32:36.507060,-5.511450381679389,0.4580152671755725,-1.9236641221374047,0.32082302246093747,-0.9720458740234375,9.53131680908203,30.03588235294118
2025-10-20T16:32:36.523901,-6.00763358778626,0.31297709923664124,-2.3740458015267176,0.23223756103515625,-1.0534487304687499,9.502586389160156,29.988823529411768
2025-10-20T16:32:36.540744,-7.076335877862595,0.1984732824427481,-2.4885496183206106,0.2059013427734375,-0.8834604125976562,9.481038574218749,30.03588235294118
2025-10-20T16:32:36.557579,-8.114503816793894,-1.9541984732824427,-2.9083969465648853,0.11013327636718749,-0.7829039428710937,9.267954626464844,29.988823529411768
2025-10-20T16:32:36.574420,-8.778625954198473,-0.05343511450381679,-3.1297709923664123,-0.01915361328125,-0.86191259765625,9.215282189941405,30.08294117647059
2025-10-20T16:32:36.591271,-8.954198473282442,0.0,-3.5419847328244276,-0.16280571289062498,-0.9361328491210937,9.236830004882812,29.941764705882356
2025-10-20T16:32:36.608111,-8.732824427480915,-0.1984732824427481,-3.786259541984733,-0.3495534423828125,-0.9983820922851562,9.208099584960937,29.988823529411768
2025-10-20T16:32:36.624953,-8.931297709923664,-0.40458015267175573,-4.305343511450381,-0.38307226562499996,-0.8978256225585937,9.208099584960937,29.988823529411768
2025-10-20T16:32:36.641799,-9.908396946564885,-0.26717557251908397,-4.564885496183206,-0.4165910888671875,-0.9816226806640624,9.354145886230468,29.941764705882356
2025-10-20T16:32:36.658640,-10.603053435114504,-0.22137404580152673,-4.900763358778626,-0.3232172241210937,-1.0319009155273438,9.145850341796875,29.89470588235294
2025-10-20T16:32:36.675486,-10.755725190839694,0.06870229007633588,-5.2748091603053435,-0.3327940307617187,-1.0965443603515623,9.083601098632812,29.89470588235294
2025-10-20T16:32:36.692332,-9.877862595419847,0.06870229007633588,-5.824427480916031,-0.3064578125,-1.1156979736328125,9.05965908203125,30.03588235294118
2025-10-20T16:32:36.709173,-8.961832061068701,0.0916030534351145,-6.312977099236641,-0.3064578125,-1.0893617553710937,9.083601098632812,29.988823529411768
2025-10-20T16:32:36.726014,-8.374045801526718,0.05343511450381679,-6.641221374045801,-0.16998831787109375,-1.0366893188476562,9.133879333496093,30.03588235294118
2025-10-20T16:32:36.742859,-8.374045801526718,0.10687022900763359,-6.770992366412214,-0.17477672119140625,-0.9816226806640624,9.133879333496093,30.03588235294118
2025-10-20T16:32:36.759704,-8.67175572519084,-0.1984732824427481,-6.778625954198473,-0.12689268798828124,-0.9026140258789062,9.172186560058593,29.988823529411768
2025-10-20T16:32:36.776536,-8.145038167938932,0.31297709923664124,-6.8320610687022905,-0.10773907470703124,-0.9552864624023437,8.932766394042968,30.03588235294118
2025-10-20T16:32:36.793385,-6.961832061068702,-0.007633587786259542,-6.404580152671755,-0.02154781494140625,-1.0534487304687499,8.95670841064453,29.988823529411768
2025-10-20T16:32:36.810232,-5.183206106870229,-0.3969465648854962,-6.442748091603053,0.05985504150390625,-1.2904746948242187,8.980650427246093,30.08294117647059
2025-10-20T16:32:36.827075,-3.3282442748091605,-0.6335877862595419,-6.022900763358779,0.06464344482421874,-1.4006079711914061,9.133879333496093,30.03588235294118
2025-10-20T16:32:36.843920,-1.5877862595419847,-0.7404580152671756,-5.534351145038168,0.08379705810546874,-1.7501614135742187,9.133879333496093,29.988823529411768
2025-10-20T16:32:36.860761,-0.0916030534351145,-0.7480916030534351,-4.755725190839694,0.16041151123046873,-1.7501614135742187,9.047688073730468,29.988823529411768
2025-10-20T16:32:36.877603,1.549618320610687,-0.5267175572519084,-4.068702290076335,0.181959326171875,-1.68551796875,8.8872765625,29.941764705882356
2025-10-20T16:32:36.894448,3.2595419847328246,-0.5343511450381679,-3.1908396946564888,0.42377369384765623,-1.7334020019531249,8.882488159179687,29.988823529411768
2025-10-20T16:32:36.911344,5.564885496183206,-0.2366412213740458,-2.236641221374046,0.16759411621093748,-1.6998831787109374,8.913612780761719,30.03588235294118
2025-10-20T16:32:36.928291,7.7251908396946565,0.06870229007633588,-1.4809160305343512,0.2442085693359375,-1.8938135131835936,8.89924757080078,29.941764705882356
2025-10-20T16:32:36.945147,9.312977099236642,0.3282442748091603,-0.5648854961832062,0.25139117431640623,-1.687912170410156,9.117119921875,30.03588235294118
2025-10-20T16:32:36.962010,9.954198473282442,0.5343511450381679,-0.16030534351145037,0.2825157958984375,-1.3958195678710936,9.26316622314453,29.988823529411768
2025-10-20T16:32:36.978864,9.725190839694656,0.816793893129771,0.3969465648854962,0.22026655273437498,-1.2665326782226562,9.141061938476563,29.941764705882356
2025-10-20T16:32:36.995710,9.32824427480916,1.213740458015267,1.0458015267175573,0.01915361328125,-0.86191259765625,9.145850341796875,29.988823529411768
2025-10-20T16:32:37.012587,8.396946564885496,1.3358778625954197,1.1908396946564885,0.08858546142578125,-0.55545478515625,9.162609753417968,29.988823529411768
2025-10-20T16:32:37.029445,7.0458015267175576,1.2671755725190839,1.297709923664122,0.16041151123046873,-0.6081272216796875,9.267954626464844,29.988823529411768
2025-10-20T16:32:37.046284,5.305343511450381,1.4274809160305344,1.4732824427480915,0.1197100830078125,-0.7589619262695312,9.296685046386719,29.89470588235294
2025-10-20T16:32:37.063122,3.5877862595419847,1.3587786259541985,1.251908396946565,0.14604630126953125,-0.5961562133789062,9.337386474609374,30.130000000000003
2025-10-20T16:32:37.079959,1.6793893129770991,1.0687022900763359,1.4198473282442747,0.028730419921875,-0.7613561279296874,9.423577734375,29.941764705882356
2025-10-20T16:32:37.096811,0.3053435114503817,0.7862595419847328,1.099236641221374,-0.1197100830078125,-0.7805097412109374,9.205705383300781,30.08294117647059
2025-10-20T16:32:37.113651,-0.6259541984732825,0.5954198473282443,0.7099236641221374,-0.277727392578125,-1.1468225952148436,9.265560424804686,30.03588235294118
2025-10-20T16:32:37.130489,-0.9083969465648855,0.4961832061068702,0.2900763358778626,-0.30406361083984373,-1.4508862060546874,9.265560424804686,30.03588235294118
2025-10-20T16:32:37.147338,-0.5114503816793893,0.366412213740458,-0.22900763358778625,-0.316034619140625,-1.5658078857421873,9.179369165039063,29.988823529411768
2025-10-20T16:32:37.164211,-0.22900763358778625,0.5190839694656488,-0.9007633587786259,-0.2825157958984375,-1.618480322265625,9.188945971679686,29.941764705882356
2025-10-20T16:32:37.181065,0.366412213740458,0.9847328244274809,-1.6106870229007633,-0.06703764648437499,-1.7286135986328124,9.196128576660156,30.08294117647059
2025-10-20T16:32:37.197921,0.9083969465648855,1.5725190839694656,-1.83206106870229,-0.055066638183593745,-1.6615759521484375,9.02135185546875,30.08294117647059
2025-10-20T16:32:37.214768,1.2595419847328244,2.145038167938931,-2.1603053435114505,0.05746083984375,-1.3862427612304686,9.006986645507812,29.941764705882356
2025-10-20T16:32:37.231616,1.8778625954198473,2.6106870229007635,-2.5267175572519083,0.05027823486328125,-1.2425906616210938,9.066841687011719,29.988823529411768
2025-10-20T16:32:37.248460,2.1755725190839694,2.4732824427480917,-2.7557251908396947,-0.0430956298828125,-1.35990654296875,9.236830004882812,29.941764705882356
2025-10-20T16:32:37.265323,2.4580152671755724,2.4427480916030535,-2.633587786259542,-0.0909796630859375,-1.388636962890625,9.236830004882812,30.03588235294118
2025-10-20T16:32:37.282173,3.2595419847328246,2.1068702290076335,-2.50381679389313,0.11252747802734374,-1.4149731811523436,9.382876306152344,29.988823529411768
2025-10-20T16:32:37.299024,4.068702290076335,1.3511450381679388,-2.16793893129771,-0.143652099609375,-1.5322890624999999,9.277531433105468,29.941764705882356
2025-10-20T16:32:37.315941,4.1679389312977095,0.6183206106870229,-2.0381679389312977,-0.11252747802734374,-1.2521674682617188,9.291896643066405,29.988823529411768
2025-10-20T16:32:37.333963,3.885496183206107,-0.13740458015267176,-1.717557251908397,-0.00718260498046875,-1.1444283935546875,9.313444458007812,29.988823529411768
2025-10-20T16:32:37.350836,3.3206106870229006,-0.732824427480916,-1.1908396946564885,-0.08379705810546874,-1.1923124267578125,9.425971936035156,30.03588235294118
2025-10-20T16:32:37.367674,2.8244274809160306,-1.0229007633587786,-0.6946564885496184,0.01915361328125,-1.1516109985351561,9.562441430664062,30.08294117647059
2025-10-20T16:32:37.384508,1.5190839694656488,-0.5038167938931297,-0.44274809160305345,0.1484405029296875,-0.8930372192382812,9.667786303710937,30.03588235294118
2025-10-20T16:32:37.401381,-0.7480916030534351,-0.183206106870229,0.31297709923664124,-0.05985504150390625,-0.5267243652343749,9.60793126220703,30.03588235294118
2025-10-20T16:32:37.418215,-1.9770992366412214,0.24427480916030533,0.7786259541984732,-0.06464344482421874,-0.39983167724609375,9.430760339355468,30.08294117647059
2025-10-20T16:32:37.435050,-6.984732824427481,0.7404580152671756,1.1984732824427482,0.028730419921875,-0.4381389038085937,9.543287817382812,29.941764705882356
2025-10-20T16:32:37.451886,-9.870229007633588,1.6259541984732824,1.5572519083969465,-0.07900865478515624,-0.7972691528320313,9.5384994140625,30.03588235294118
2025-10-20T16:32:37.468722,-12.061068702290076,2.2061068702290076,2.015267175572519,-0.16519991455078123,-1.0510545288085937,9.56962403564453,30.08294117647059
2025-10-20T16:32:37.485555,-11.770992366412214,2.3969465648854964,2.114503816793893,-0.2753331909179687,-1.3383587280273437,9.770736975097655,29.988823529411768
2025-10-20T16:32:37.502407,-15.526717557251908,2.3969465648854964,2.4580152671755724,-0.1771709228515625,-1.2928688964843749,9.694122521972655,30.03588235294118
2025-10-20T16:32:37.519256,-17.862595419847327,2.4656488549618323,2.7099236641221376,-0.19153613281249998,-1.209071838378906,9.679757312011718,30.08294117647059
2025-10-20T16:32:37.536098,-20.389312977099237,2.183206106870229,3.0916030534351147,-0.22505495605468748,-1.0654197387695312,9.560047229003906,29.988823529411768
2025-10-20T16:32:37.552940,-22.557251908396946,1.7099236641221374,3.5267175572519083,-0.28969840087890625,-1.0654197387695312,9.540893615722656,30.03588235294118
2025-10-20T16:32:37.569780,-24.068702290076335,1.3282442748091603,2.0,-0.028730419921875,-1.1827356201171875,9.471461767578125,29.941764705882356
2025-10-20T16:32:37.586626,-24.763358778625953,0.9694656488549618,4.1603053435114505,0.13646949462890623,-1.1085153686523437,9.406818322753905,29.988823529411768
2025-10-20T16:32:37.603473,-25.53435114503817,0.8778625954198473,4.580152671755725,0.06943184814453125,-1.1180921752929687,9.349357482910156,30.03588235294118
2025-10-20T16:32:37.620313,-26.50381679389313,1.0687022900763359,4.572519083969466,0.0143652099609375,-1.0319009155273438,9.258377819824219,30.03588235294118
2025-10-20T16:32:37.637153,-27.236641221374047,1.2366412213740459,4.770992366412214,-0.033518823242187495,-1.0438719238281249,9.150638745117186,29.988823529411768
2025-10-20T16:32:37.653993,-27.16793893129771,1.3511450381679388,4.572519083969466,-0.1292868896484375,-1.2018892333984375,9.100360510253905,29.941764705882356
2025-10-20T16:32:37.670852,-25.96946564885496,1.5419847328244274,4.5038167938931295,-0.1484405029296875,-1.2976572998046874,8.997409838867187,30.03588235294118
2025-10-20T16:32:37.687701,-24.389312977099237,1.3206106870229009,4.190839694656488,-0.15562310791015624,-1.3072341064453123,8.927977990722656,29.988823529411768
2025-10-20T16:32:37.704551,-23.33587786259542,1.786259541984733,4.068702290076335,-0.258573779296875,-1.2306196533203124,9.191340173339842,30.03588235294118
2025-10-20T16:32:37.721390,-23.282442748091604,0.05343511450381679,4.068702290076335,-0.24660277099609373,-1.2641384765625,9.0788126953125,30.03588235294118
2025-10-20T16:32:37.738235,-23.16030534351145,2.236641221374046,3.9083969465648853,-0.20350714111328125,-1.4006079711914061,9.090783703613281,29.988823529411768
2025-10-20T16:32:37.755137,-22.603053435114504,2.267175572519084,3.931297709923664,-0.04548983154296875,-1.5897499023437498,8.987833032226561,29.941764705882356
2025-10-20T16:32:37.772073,-21.519083969465647,1.633587786259542,3.572519083969466,-0.24660277099609373,-1.6136919189453125,8.913612780761719,29.89470588235294
2025-10-20T16:32:37.788932,-19.9618320610687,1.6946564885496183,3.267175572519084,-0.39743747558593745,-1.6352397338867186,9.057264880371093,30.03588235294118
2025-10-20T16:32:37.805813,-18.916030534351144,1.2061068702290076,3.0076335877862594,-0.18435352783203124,-1.8076222534179687,9.150638745117186,29.988823529411768
2025-10-20T16:32:37.822673,-18.47328244274809,1.16793893129771,2.5801526717557253,-0.30885201416015623,-1.7669208251953124,9.0788126953125,30.03588235294118
2025-10-20T16:32:37.839516,-18.801526717557252,1.0916030534351144,2.49618320610687,-0.22026655273437498,-1.7022773803710936,9.13627353515625,29.988823529411768
2025-10-20T16:32:37.856400,-19.267175572519083,1.1603053435114503,2.687022900763359,-0.2705447875976562,-1.917755529785156,8.9255837890625,30.03588235294118
2025-10-20T16:32:37.873271,-19.27480916030534,1.4198473282442747,2.687022900763359,-0.24899697265624998,-2.2649147705078123,8.971073620605468,30.130000000000003
2025-10-20T16:32:37.890125,-18.435114503816795,1.6412213740458015,3.0610687022900764,-0.033518823242187495,-2.43250888671875,8.836998327636719,30.08294117647059
2025-10-20T16:32:37.906983,-17.427480916030536,1.7786259541984732,3.404580152671756,0.055066638183593745,-2.5953145996093747,8.79150849609375,29.941764705882356
2025-10-20T16:32:37.923829,-16.900763358778626,2.2213740458015265,3.8473282442748094,-0.1484405029296875,-2.7964275390625,8.781931689453124,29.988823529411768
2025-10-20T16:32:37.940671,-17.14503816793893,2.5877862595419847,4.6183206106870225,-0.055066638183593745,-2.935291235351562,8.827421520996094,29.988823529411768
2025-10-20T16:32:37.957511,-16.610687022900763,2.8702290076335877,5.229007633587786,-0.016759411621093748,-2.93050283203125,8.643067993164061,30.03588235294118
2025-10-20T16:32:37.974355,-15.572519083969466,3.3435114503816794,5.977099236641221,-0.32082302246093747,-3.0454245117187497,8.532934716796875,30.03588235294118
2025-10-20T16:32:37.991200,-13.358778625954198,3.0076335877862594,6.526717557251908,-0.39264907226562495,-3.306392492675781,8.279149340820313,29.988823529411768
2025-10-20T16:32:38.008050,-10.282442748091603,2.877862595419847,6.66412213740458,-0.4070142822265625,-3.5577836669921874,8.212111694335936,29.941764705882356
2025-10-20T16:32:38.024892,-7.748091603053435,2.5114503816793894,6.854961832061068,-0.4429273071289062,-3.6655227416992187,8.303091357421874,30.03588235294118
2025-10-20T16:32:38.041733,-2.045801526717557,2.0610687022900764,7.038167938931298,-0.5315127685546874,-3.574543078613281,8.532934716796875,30.08294117647059
2025-10-20T16:32:38.058572,0.3053435114503817,1.4274809160305344,7.206106870229007,-0.5363011718749999,-3.3016040893554686,8.537723120117187,30.03588235294118
2025-10-20T16:32:38.075422,1.213740458015267,1.251908396946565,7.458015267175573,-0.47165772705078124,-2.8945898071289062,8.772354882812499,30.03588235294118
2025-10-20T16:32:38.092273,1.5725190839694656,1.2213740458015268,7.549618320610687,-0.5339069702148437,-2.5857377929687497,8.690952026367187,29.988823529411768
2025-10-20T16:32:38.109168,1.633587786259542,0.9618320610687023,7.702290076335878,-0.5027823486328125,-2.578555187988281,8.769960681152343,30.03588235294118
2025-10-20T16:32:38.126035,2.2519083969465647,0.7404580152671756,7.6183206106870225,-0.4285620971679687,-2.6791116577148437,8.755595471191405,29.988823529411768
2025-10-20T16:32:38.142877,2.8091603053435112,0.7938931297709924,7.778625954198473,-0.2442085693359375,-2.731784094238281,8.834604125976561,30.03588235294118
2025-10-20T16:32:38.159716,1.748091603053435,0.7022900763358778,7.740458015267175,-0.39743747558593745,-2.597708801269531,9.02135185546875,30.03588235294118
2025-10-20T16:32:38.176558,-0.6335877862595419,0.8091603053435115,7.748091603053435,-0.4070142822265625,-2.152387292480469,9.217676391601563,29.988823529411768
2025-10-20T16:32:38.193403,-4.572519083969466,1.3740458015267176,8.0,-0.5003881469726562,-2.252943762207031,9.30147344970703,29.988823529411768
2025-10-20T16:32:38.210250,-7.702290076335878,1.717557251908397,7.908396946564886,-0.4955997436523437,-2.3295582153320313,9.165003955078124,30.130000000000003
2025-10-20T16:32:38.227094,-9.236641221374045,2.3053435114503817,7.931297709923665,-0.49799394531249996,-2.8706477905273435,8.954314208984375,29.988823529411768
2025-10-20T16:32:38.243936,-9.49618320610687,2.2595419847328246,8.34351145038168,-0.3495534423828125,-3.306392492675781,9.030928662109375,30.08294117647059
2025-10-20T16:32:38.260777,-9.961832061068701,2.2977099236641223,8.84732824427481,-0.3327940307617187,-3.27526787109375,9.1554271484375,30.03588235294118
2025-10-20T16:32:38.277618,-11.801526717557252,2.8625954198473282,9.755725190839694,-0.3711012573242187,-2.959233251953125,9.131485131835937,30.08294117647059
2025-10-20T16:32:38.294463,-14.786259541984732,3.480916030534351,10.16793893129771,-0.28969840087890625,-2.612074011230469,9.222464794921875,29.89470588235294
2025-10-20T16:32:38.311305,-17.572519083969464,3.7099236641221376,10.49618320610687,-0.23223756103515625,-2.6575638427734374,8.947131604003905,29.941764705882356
2025-10-20T16:32:38.328146,-18.34351145038168,3.9236641221374047,10.648854961832061,-0.16759411621093748,-2.655169641113281,8.961496813964843,29.988823529411768
2025-10-20T16:32:38.345040,-16.977099236641223,3.801526717557252,10.465648854961833,-0.2609679809570312,-2.834734765625,8.825027319335938,30.03588235294118
2025-10-20T16:32:38.361906,-14.221374045801527,3.213740458015267,10.229007633587786,-0.5746083984375,-3.0262708984374997,8.662221606445312,30.03588235294118
2025-10-20T16:32:38.378769,-12.297709923664122,2.984732824427481,9.931297709923664,-0.6296750366210937,-3.0334535034179684,8.736441857910156,29.988823529411768
2025-10-20T16:32:38.395619,-10.687022900763358,2.6106870229007635,9.458015267175572,-0.8283937744140625,-2.932897033691406,8.734047656249999,29.941764705882356
2025-10-20T16:32:38.412482,-8.648854961832061,2.1297709923664123,8.992366412213741,-0.8667010009765624,-3.1292215698242187,8.595183959960938,30.08294117647059
2025-10-20T16:32:38.429333,-7.793893129770993,1.748091603053435,8.526717557251908,-0.8259995727539062,-3.1651345947265623,8.70771143798828,29.89470588235294
2025-10-20T16:32:38.446178,-2.0076335877862594,1.2061068702290076,8.129770992366412,-0.8020575561523438,-3.0837317382812497,8.578424548339843,30.03588235294118
2025-10-20T16:32:38.463013,1.816793893129771,0.7557251908396947,7.603053435114504,-0.7924807495117187,-3.0262708984374997,8.513781103515624,29.988823529411768
2025-10-20T16:32:38.479856,5.206106870229007,0.5267175572519084,6.969465648854962,-0.7733271362304687,-2.6958710693359373,8.604760766601562,30.08294117647059
2025-10-20T16:32:38.496696,8.389312977099237,-1.9389312977099236,6.091603053435114,-0.6248866333007812,-2.750937707519531,8.525752111816406,29.988823529411768
2025-10-20T16:32:38.513543,11.50381679389313,-0.17557251908396945,5.33587786259542,-0.46686932373046874,-2.7629087158203123,8.702923034667968,29.988823529411768
2025-10-20T16:32:38.530383,14.732824427480915,-0.26717557251908397,4.938931297709924,-0.5506663818359374,-2.7174188842773437,8.760383874511719,29.988823529411768
2025-10-20T16:32:38.547258,17.18320610687023,-0.48091603053435117,4.549618320610687,-0.584185205078125,-2.499546533203125,8.810662109374999,30.03588235294118
2025-10-20T16:32:38.564114,19.076335877862597,-0.8931297709923665,4.358778625954199,-0.5315127685546874,-2.3439234252929686,9.026140258789061,29.89470588235294
2025-10-20T16:32:38.580953,20.328244274809162,-1.213740458015267,4.564885496183206,-0.3184288208007812,-2.5641899780273434,9.054870678710937,29.89470588235294
2025-10-20T16:32:38.597867,22.297709923664122,-1.3587786259541985,4.786259541984733,-0.17238251953125,-2.6408044311523438,8.942343200683593,29.988823529411768
2025-10-20T16:32:38.614754,24.48854961832061,-1.6564885496183206,5.4961832061068705,0.0909796630859375,-3.066972326660156,8.908824377441405,30.03588235294118
2025-10-20T16:32:38.631679,27.12213740458015,-2.1755725190839694,6.083969465648855,0.2442085693359375,-2.999934680175781,8.892064965820312,29.988823529411768
2025-10-20T16:32:38.648609,28.31297709923664,-2.4732824427480917,6.770992366412214,0.3902548706054687,-2.868253588867187,9.129090930175781,30.03588235294118
2025-10-20T16:32:38.665476,28.053435114503817,-2.450381679389313,7.33587786259542,0.411802685546875,-2.6575638427734374,9.34696328125,29.988823529411768
2025-10-20T16:32:38.682324,25.419847328244273,-2.6259541984732824,8.145038167938932,0.3112462158203125,-2.5234885498046875,9.325415466308593,29.941764705882356
2025-10-20T16:32:38.699884,27.69465648854962,-2.801526717557252,8.526717557251908,0.4261678955078125,-2.327164013671875,9.291896643066405,30.03588235294118
2025-10-20T16:32:38.716753,29.30534351145038,-3.1526717557251906,9.038167938931299,0.33039982910156246,-2.492363928222656,9.253589416503905,29.988823529411768
2025-10-20T16:32:38.733599,31.229007633587788,-3.3969465648854964,9.412213740458014,0.181959326171875,-2.3918074584960936,9.105148913574219,30.03588235294118
2025-10-20T16:32:38.750440,32.32824427480916,-2.969465648854962,9.770992366412214,0.1388636962890625,-1.9967641845703124,9.306261853027344,29.988823529411768
2025-10-20T16:32:38.767282,32.404580152671755,-2.83206106870229,9.916030534351146,-0.258573779296875,-1.7693150268554687,9.064447485351561,29.988823529411768
2025-10-20T16:32:38.784115,33.11450381679389,-2.1603053435114505,9.625954198473282,-0.296881005859375,-1.5897499023437498,9.282319836425781,30.03588235294118
2025-10-20T16:32:38.801055,30.328244274809162,-1.549618320610687,9.442748091603054,-0.4908113403320312,-1.5466542724609373,9.481038574218749,29.988823529411768
2025-10-20T16:32:38.817918,30.709923664122137,-1.1374045801526718,8.816793893129772,-0.842758984375,-1.37906015625,9.200916979980468,30.03588235294118
2025-10-20T16:32:38.834768,32.12977099236641,-1.1068702290076335,7.908396946564886,-1.1947066284179686,-1.2401964599609374,9.107543115234375,29.988823529411768
2025-10-20T16:32:38.851612,33.06870229007634,-1.5954198473282444,6.786259541984733,-1.4006079711914061,-0.9409212524414062,9.198522778320312,29.988823529411768
2025-10-20T16:32:38.868454,32.9236641221374,-1.5572519083969465,5.702290076335878,-1.4820108276367188,-0.6488286499023437,9.191340173339842,30.03588235294118
2025-10-20T16:32:38.885296,33.17557251908397,-1.5267175572519085,4.3816793893129775,-1.62805712890625,-0.4740519287109375,9.327809667968749,29.988823529411768
2025-10-20T16:32:38.902132,28.442748091603054,-1.7099236641221374,3.435114503816794,-1.5705962890624998,-0.2537853759765625,9.459490759277344,29.988823529411768
2025-10-20T16:32:38.918969,26.290076335877863,-2.0076335877862594,2.2595419847328246,-1.4532804077148436,-0.4429273071289062,9.370905297851563,30.03588235294118
2025-10-20T16:32:38.935809,25.480916030534353,-2.6259541984732824,1.297709923664122,-1.2880804931640624,-0.2825157958984375,9.253589416503905,30.03588235294118
2025-10-20T16:32:38.952677,25.53435114503817,-2.549618320610687,0.2824427480916031,-1.0390835205078124,-0.11731588134765625,9.093177905273437,29.988823529411768
2025-10-20T16:32:38.969540,25.610687022900763,-2.900763358778626,-0.5648854961832062,-1.0654197387695312,0.055066638183593745,9.179369165039063,29.941764705882356
2025-10-20T16:32:38.986385,24.16793893129771,-3.3053435114503817,-1.4885496183206106,-0.9217676391601562,0.2609679809570312,9.435548742675781,29.988823529411768
2025-10-20T16:32:39.003228,21.64885496183206,-2.877862595419847,-3.8702290076335877,-0.7541735229492187,0.33758243408203126,9.466673364257812,30.08294117647059
2025-10-20T16:32:39.020085,17.755725190839694,-2.6412213740458017,-2.404580152671756,-0.5099649536132812,0.3902548706054687,9.622296472167967,30.03588235294118
2025-10-20T16:32:39.036937,13.977099236641221,-2.3587786259541983,-2.633587786259542,-0.30885201416015623,0.17477672119140625,9.521740002441407,29.89470588235294
2025-10-20T16:32:39.053774,11.122137404580153,-2.5114503816793894,-2.595419847328244,-0.09816226806640624,-0.05985504150390625,9.528922607421874,29.988823529411768
2025-10-20T16:32:39.070615,9.961832061068701,-2.0839694656488548,-2.4122137404580153,0.00718260498046875,-0.15562310791015624,9.253589416503905,30.03588235294118
2025-10-20T16:32:39.087456,9.374045801526718,-1.5572519083969465,-2.5267175572519083,-0.1197100830078125,-0.17956512451171874,9.169792358398437,29.988823529411768
2025-10-20T16:32:39.104300,9.076335877862595,-1.8854961832061068,-2.480916030534351,0.02633621826171875,-0.040701428222656245,9.382876306152344,30.08294117647059
2025-10-20T16:32:39.121153,7.366412213740458,-1.6870229007633588,-2.2519083969465647,0.25139117431640623,0.07900865478515624,9.576806640625,30.03588235294118
2025-10-20T16:32:39.138000,4.870229007633588,-1.3206106870229009,-1.9083969465648856,0.3327940307617187,0.181959326171875,9.639055883789062,29.988823529411768
2025-10-20T16:32:39.154838,2.8396946564885495,-0.9007633587786259,-1.83206106870229,0.34715924072265625,0.20829554443359374,9.588777648925781,30.08294117647059
2025-10-20T16:32:39.171672,1.0763358778625953,-0.6870229007633588,-1.4122137404580153,0.20829554443359374,0.2346317626953125,9.380482104492186,30.03588235294118
2025-10-20T16:32:39.188524,0.8320610687022901,-0.5419847328244275,-1.534351145038168,0.16041151123046873,0.17238251953125,9.05965908203125,30.08294117647059
2025-10-20T16:32:39.205365,2.2519083969465647,0.04580152671755725,-1.6259541984732824,-0.06703764648437499,0.09816226806640624,9.011775048828124,29.988823529411768
2025-10-20T16:32:39.222210,4.603053435114504,0.10687022900763359,-1.748091603053435,-0.11731588134765625,0.12210428466796874,8.987833032226561,29.941764705882356
2025-10-20T16:32:39.239052,6.442748091603053,0.12213740458015267,-2.0763358778625953,-0.05985504150390625,0.18435352783203124,9.2320416015625,29.988823529411768
2025-10-20T16:32:39.255893,7.137404580152672,0.24427480916030533,-2.2442748091603053,-0.0718260498046875,0.277727392578125,9.313444458007812,29.988823529411768
2025-10-20T16:32:39.272736,7.259541984732825,0.5419847328244275,-2.404580152671756,-0.08379705810546874,0.5147533569335937,9.085995300292968,30.177058823529414
2025-10-20T16:32:39.289576,8.061068702290076,0.09923664122137404,-2.7404580152671754,-0.3064578125,0.40222587890625,8.844180932617187,29.941764705882356
2025-10-20T16:32:39.306415,10.16030534351145,-0.12213740458015267,-3.0076335877862594,-0.4955997436523437,0.2442085693359375,8.84178673095703,30.08294117647059
2025-10-20T16:32:39.323258,13.068702290076336,-0.5648854961832062,-3.3206106870229006,-0.5578489868164063,0.23702596435546874,8.798691101074219,30.03588235294118
2025-10-20T16:32:39.340099,15.778625954198473,-1.381679389312977,-3.7099236641221376,-0.5363011718749999,0.16280571289062498,8.973467822265624,30.03588235294118
2025-10-20T16:32:39.356933,17.267175572519083,-1.9465648854961832,-4.305343511450381,-0.4908113403320312,0.6344634399414062,9.318232861328125,29.988823529411768
2025-10-20T16:32:39.373768,16.96946564885496,-2.4656488549618323,-4.297709923664122,-0.4836287353515625,1.0223241088867188,9.437942944335937,30.08294117647059
2025-10-20T16:32:39.390607,15.954198473282442,-3.0381679389312977,-4.3816793893129775,-0.6153098266601562,0.622492431640625,9.198522778320312,30.03588235294118
2025-10-20T16:32:39.407458,15.236641221374045,-3.122137404580153,-4.465648854961832,-0.7517793212890624,0.7254431030273437,8.908824377441405,29.988823529411768
2025-10-20T16:32:39.424312,15.389312977099237,-3.4122137404580153,-4.748091603053435,-0.7134720947265625,0.699106884765625,9.14824454345703,30.03588235294118
2025-10-20T16:32:39.441319,15.687022900763358,-3.0916030534351147,-4.870229007633588,-0.8092401611328125,0.8283937744140625,9.313444458007812,29.988823529411768
2025-10-20T16:32:39.458178,15.061068702290076,-3.4122137404580153,-4.801526717557252,-0.7733271362304687,0.9050082275390624,9.555258825683593,30.03588235294118
2025-10-20T16:32:39.475019,12.977099236641221,-3.5877862595419847,-4.969465648854962,-0.7206546997070312,0.9504980590820312,9.574412438964844,29.89470588235294
2025-10-20T16:32:39.491992,10.51908396946565,-2.900763358778626,-4.763358778625954,-0.6009446166992187,0.8978256225585937,9.639055883789062,29.988823529411768
2025-10-20T16:32:39.508859,8.488549618320612,-2.6106870229007635,-4.717557251908397,-0.296881005859375,0.411802685546875,9.430760339355468,30.03588235294118
2025-10-20T16:32:39.525716,7.6106870229007635,-1.5801526717557253,-4.6183206106870225,-0.36631285400390623,-0.3280056274414062,9.038111267089842,30.03588235294118
2025-10-20T16:32:39.542559,9.099236641221374,-1.0458015267175573,-4.679389312977099,-0.6416460449218749,-0.7900865478515624,8.750807067871094,29.988823529411768
2025-10-20T16:32:39.560107,11.549618320610687,-0.816793893129771,-4.877862595419847,-0.6416460449218749,-0.6272808349609375,8.877699755859375,29.988823529411768
2025-10-20T16:32:39.576995,13.908396946564885,-1.0381679389312977,-4.587786259541985,-0.6775590698242188,-0.7278373046875,9.332598071289063,30.08294117647059
2025-10-20T16:32:39.593847,15.580152671755725,-1.6030534351145038,-4.2748091603053435,-0.8954314208984374,-0.8906430175781249,9.083601098632812,30.08294117647059
2025-10-20T16:32:39.610693,17.290076335877863,-2.427480916030534,-5.862595419847328,-1.0989385620117187,-0.9552864624023437,9.265560424804686,30.130000000000003
2025-10-20T16:32:39.627547,18.6793893129771,-2.931297709923664,-3.3053435114503817,-1.0438719238281249,-0.9074024291992187,9.215282189941405,29.988823529411768
2025-10-20T16:32:39.644396,19.748091603053435,-3.4198473282442747,-2.6412213740458017,-1.0079588989257813,-0.5865794067382812,9.208099584960937,29.988823529411768
2025-10-20T16:32:39.661237,20.53435114503817,-4.022900763358779,-2.0763358778625953,-1.0678139404296874,-0.05985504150390625,9.13627353515625,30.03588235294118
2025-10-20T16:32:39.678084,20.236641221374047,-4.450381679389313,-1.618320610687023,-0.6727706665039062,0.679953271484375,9.265560424804686,30.08294117647059
2025-10-20T16:32:39.694932,18.47328244274809,-3.969465648854962,-1.099236641221374,-0.39983167724609375,1.4963760375976562,9.528922607421874,30.03588235294118
2025-10-20T16:32:39.711782,14.816793893129772,-4.2748091603053435,-0.8625954198473282,-0.4333505004882812,1.879448303222656,9.598354455566406,30.08294117647059
2025-10-20T16:32:39.728631,9.106870229007633,-3.5343511450381677,-0.3282442748091603,-0.24181436767578124,2.128445275878906,9.981426721191406,29.988823529411768
2025-10-20T16:32:39.745472,3.5267175572519083,-2.5419847328244276,-0.48091603053435117,-0.3136404174804687,1.8459294799804686,9.816226806640625,30.03588235294118
2025-10-20T16:32:39.762320,-1.4580152671755726,-2.1908396946564888,-1.0687022900763359,-0.29448680419921874,1.9919757812499999,9.718064538574218,29.988823529411768
2025-10-20T16:32:39.779167,-5.786259541984733,-1.6870229007633588,-1.3053435114503817,-0.22744915771484372,2.042254016113281,9.660603698730467,30.03588235294118
2025-10-20T16:32:39.796008,-7.870229007633588,-0.8396946564885496,-2.0610687022900764,-0.22026655273437498,2.0302830078125,9.758765966796874,30.03588235294118
2025-10-20T16:32:39.812901,-13.946564885496183,0.48091603053435117,-2.3893129770992365,-0.3399766357421875,2.059013427734375,9.792284790039062,29.89470588235294
2025-10-20T16:32:39.829777,-17.709923664122137,0.7175572519083969,-3.0916030534351147,-0.40462008056640625,1.879448303222656,9.854534033203125,30.03588235294118
2025-10-20T16:32:39.846620,-21.221374045801525,1.0458015267175573,-3.6030534351145036,-0.3854664672851562,1.7717092285156248,9.974244116210937,29.988823529411768
2025-10-20T16:32:39.863465,-24.061068702290076,1.5954198473282444,-4.137404580152672,-0.5386953735351562,1.5969325073242187,10.036493359375,30.03588235294118
2025-10-20T16:32:39.880307,-25.96946564885496,2.2213740458015265,-4.312977099236641,-0.5315127685546874,1.5251064575195312,9.80665,30.03588235294118
2025-10-20T16:32:39.897147,-26.68702290076336,2.2977099236641223,-4.877862595419847,-0.7302315063476562,1.1180921752929687,9.629479077148437,29.988823529411768
2025-10-20T16:32:39.913992,-26.099236641221374,2.4198473282442747,-5.206106870229007,-0.8547299926757812,1.1372457885742187,9.469067565917967,30.03588235294118
2025-10-20T16:32:39.930837,-25.221374045801525,2.66412213740458,-5.6183206106870225,-0.9050082275390624,1.3670891479492187,9.512163195800781,30.03588235294118
2025-10-20T16:32:39.947681,-24.045801526717558,2.4732824427480917,-6.0534351145038165,-0.6200982299804687,1.3096283081054687,9.557653027343749,30.08294117647059
2025-10-20T16:32:39.964524,-22.82442748091603,2.183206106870229,-6.267175572519084,-0.42377369384765623,1.1444283935546875,9.528922607421874,29.941764705882356
2025-10-20T16:32:39.981365,-20.9618320610687,1.8015267175572518,-6.893129770992366,-0.33039982910156246,0.8547299926757812,9.488221179199218,30.03588235294118
2025-10-20T16:32:39.998200,-18.51145038167939,1.5954198473282444,-7.3816793893129775,-0.4644751220703125,0.689530078125,9.337386474609374,29.988823529411768
2025-10-20T16:32:40.015044,-15.877862595419847,1.297709923664122,-7.9465648854961835,-0.4333505004882812,0.6009446166992187,9.294290844726563,29.988823529411768
2025-10-20T16:32:40.031898,-13.49618320610687,0.9007633587786259,-8.435114503816793,-0.3758896606445312,0.6368576416015624,9.323021264648437,30.03588235294118
2025-10-20T16:32:40.048741,-13.641221374045802,0.8473282442748091,-8.870229007633588,-0.4070142822265625,0.7062894897460937,9.272743029785156,30.08294117647059
2025-10-20T16:32:40.065581,-10.061068702290076,0.26717557251908397,-8.98473282442748,-0.23223756103515625,0.47165772705078124,9.296685046386719,29.941764705882356
2025-10-20T16:32:40.082422,-8.488549618320612,0.35877862595419846,-9.458015267175572,-0.16759411621093748,0.3950432739257812,9.392453112792968,30.03588235294118
2025-10-20T16:32:40.099263,-7.6183206106870225,-0.17557251908396945,-9.19083969465649,-0.06703764648437499,0.43574470214843747,9.466673364257812,29.988823529411768
2025-10-20T16:32:40.116108,-7.183206106870229,-0.3816793893129771,-9.282442748091603,-0.19632453613281248,0.5123591552734374,9.478644372558593,29.941764705882356
2025-10-20T16:32:40.132952,-7.4961832061068705,-0.26717557251908397,-9.320610687022901,-0.35194764404296874,0.5410895751953124,9.366116894531249,29.988823529411768
2025-10-20T16:32:40.149793,-7.6106870229007635,-0.5954198473282443,-9.442748091603054,-0.23223756103515625,0.5243301635742187,9.057264880371093,29.988823529411768
2025-10-20T16:32:40.166630,-7.709923664122138,-0.4122137404580153,-9.17557251908397,-0.20350714111328125,0.5746083984375,9.121908325195312,30.03588235294118
2025-10-20T16:32:40.183471,-7.358778625954199,-0.732824427480916,-9.51908396946565,-0.1580173095703125,0.4740519287109375,9.325415466308593,30.03588235294118
2025-10-20T16:32:40.200315,-7.801526717557252,-0.6793893129770993,-9.50381679389313,-0.055066638183593745,0.4070142822265625,9.397241516113281,29.988823529411768
2025-10-20T16:32:40.217163,-8.740458015267176,-0.6870229007633588,-9.305343511450381,0.047884033203124995,0.3950432739257812,9.404424121093749,29.988823529411768
2025-10-20T16:32:40.234014,-9.908396946564885,-0.3969465648854962,-9.679389312977099,0.031124621582031248,0.32561142578124996,9.323021264648437,29.988823529411768
2025-10-20T16:32:40.250881,-11.13740458015267,-0.5343511450381679,-9.954198473282442,-0.0430956298828125,0.30406361083984373,9.138667736816405,29.988823529411768
2025-10-20T16:32:40.267737,-12.244274809160306,-0.40458015267175573,-10.229007633587786,-0.3016694091796875,-0.033518823242187495,9.076418493652342,30.03588235294118
2025-10-20T16:32:40.284633,-12.412213740458014,-0.6641221374045801,-10.549618320610687,-0.3327940307617187,-0.1867477294921875,8.889670764160156,30.08294117647059
2025-10-20T16:32:40.301501,-12.198473282442748,-1.1603053435114503,-10.916030534351146,-0.3327940307617187,-0.16998831787109375,9.126696728515624,30.03588235294118
2025-10-20T16:32:40.318355,-12.801526717557252,-1.2290076335877862,-11.396946564885496,-0.296881005859375,-0.07900865478515624,9.325415466308593,29.988823529411768
2025-10-20T16:32:40.335289,-14.007633587786259,-1.1984732824427482,-11.877862595419847,-0.3758896606445312,-0.0047884033203125,9.145850341796875,30.03588235294118
2025-10-20T16:32:40.352147,-15.450381679389313,-1.3358778625954197,-12.244274809160306,-0.4908113403320312,0.016759411621093748,9.124302526855468,29.988823529411768
2025-10-20T16:32:40.368994,-16.72519083969466,-0.9770992366412213,-12.442748091603054,-0.42377369384765623,-0.03591302490234375,8.813056311035156,29.89470588235294
2025-10-20T16:32:40.385830,-17.229007633587788,-1.297709923664122,-13.030534351145038,-0.4165910888671875,-0.13168109130859373,8.836998327636719,30.03588235294118
2025-10-20T16:32:40.403495,-16.931297709923665,-1.0229007633587786,-13.389312977099237,-0.40462008056640625,-0.30406361083984373,8.870517150878905,29.988823529411768
2025-10-20T16:32:40.420362,-16.549618320610687,-1.015267175572519,-13.793893129770993,-0.41419688720703124,-0.4644751220703125,8.95670841064453,29.988823529411768
2025-10-20T16:32:40.437227,-16.236641221374047,-1.2671755725190839,-13.83206106870229,-0.5195417602539062,-0.5626373901367188,9.0021982421875,29.988823529411768
2025-10-20T16:32:40.454080,-16.068702290076335,-1.6793893129770991,-13.938931297709924,-0.6105214233398437,-0.7422025146484375,8.923189587402343,29.941764705882356
2025-10-20T16:32:40.470921,-16.358778625954198,-1.900763358778626,-14.13740458015267,-0.30406361083984373,-0.7134720947265625,8.99501563720703,29.988823529411768
2025-10-20T16:32:40.487764,-16.137404580152673,-2.1068702290076335,-14.213740458015268,-0.18914193115234373,-0.7805097412109374,9.165003955078124,29.988823529411768
2025-10-20T16:32:40.504607,-16.16030534351145,-2.5267175572519083,-14.068702290076336,-0.05985504150390625,-0.9648632690429687,9.165003955078124,29.941764705882356
2025-10-20T16:32:40.521453,-15.541984732824428,-3.0229007633587788,-13.969465648854962,-0.031124621582031248,-0.948103857421875,9.047688073730468,29.988823529411768
2025-10-20T16:32:40.538309,-15.83969465648855,-3.030534351145038,-14.01526717557252,0.05985504150390625,-0.7685387329101562,9.251195214843749,30.130000000000003
2025-10-20T16:32:40.555166,-17.46564885496183,-2.946564885496183,-13.549618320610687,0.143652099609375,-0.603338818359375,9.449913952636718,29.988823529411768
2025-10-20T16:32:40.572011,-20.198473282442748,-2.564885496183206,-11.748091603053435,0.20350714111328125,-0.3447650390625,9.557653027343749,29.988823529411768
2025-10-20T16:32:40.588860,-23.83206106870229,-1.9618320610687023,-13.091603053435115,0.29927520751953124,-0.24181436767578124,9.617508068847656,29.941764705882356
2025-10-20T16:32:40.605718,-27.671755725190838,-1.4274809160305344,-13.16030534351145,0.07900865478515624,-0.028730419921875,9.564835632324218,29.89470588235294
2025-10-20T16:32:40.622568,-31.18320610687023,-0.8244274809160306,-13.183206106870228,0.06703764648437499,-0.040701428222656245,9.49300958251953,29.941764705882356
2025-10-20T16:32:40.639418,-33.80152671755725,-0.07633587786259542,-13.442748091603054,-0.1484405029296875,-0.40222587890625,9.399635717773437,30.03588235294118
2025-10-20T16:32:40.656303,-35.10687022900763,0.5648854961832062,-14.030534351145038,-0.28490999755859375,-0.7876923461914062,9.277531433105468,29.988823529411768
2025-10-20T16:32:40.673166,-35.30534351145038,1.0458015267175573,-14.49618320610687,-0.3327940307617187,-1.20667763671875,9.272743029785156,29.941764705882356
2025-10-20T16:32:40.690013,-35.01526717557252,1.183206106870229,-14.86259541984733,-0.27293898925781246,-1.4245499877929686,9.227253198242186,29.988823529411768
2025-10-20T16:32:40.706856,-34.25190839694657,1.450381679389313,-15.526717557251908,-0.26815058593749996,-1.8004396484374998,9.30147344970703,29.941764705882356
2025-10-20T16:32:40.723698,-32.83206106870229,1.3129770992366412,-16.0,-0.2657563842773437,-1.9488801513671874,9.088389501953124,30.03588235294118
2025-10-20T16:32:40.740551,-30.633587786259543,1.3129770992366412,-16.519083969465647,-0.3902548706054687,-2.133233679199219,9.126696728515624,30.08294117647059
2025-10-20T16:32:40.757387,-27.709923664122137,0.8473282442748091,-17.0381679389313,-0.2825157958984375,-2.2290017456054687,9.03332286376953,30.08294117647059
2025-10-20T16:32:40.774222,-24.900763358778626,0.7099236641221374,-17.358778625954198,-0.13646949462890623,-2.1068974609374997,9.179369165039063,30.03588235294118
2025-10-20T16:32:40.791067,-23.229007633587788,0.7175572519083969,-17.671755725190838,0.07422025146484375,-1.6208745239257811,9.220070593261719,29.988823529411768
2025-10-20T16:32:40.807936,-21.51145038167939,0.9694656488549618,-18.061068702290076,-0.10773907470703124,-1.1516109985351561,9.342174877929686,30.03588235294118
2025-10-20T16:32:40.824792,-25.374045801526716,1.366412213740458,-18.267175572519083,-0.02154781494140625,-0.5291185668945312,9.497797985839844,30.08294117647059
2025-10-20T16:32:40.841647,-27.84732824427481,2.1755725190839694,-18.69465648854962,-0.18914193115234373,-0.4429273071289062,9.315838659667968,29.988823529411768
2025-10-20T16:32:40.858490,-30.114503816793892,2.4427480916030535,-19.091603053435115,-0.45010991210937495,-0.622492431640625,9.323021264648437,30.03588235294118
2025-10-20T16:32:40.875336,-31.244274809160306,2.763358778625954,-19.732824427480917,-0.5339069702148437,-1.1085153686523437,9.217676391601563,29.988823529411768
2025-10-20T16:32:40.892178,-32.3587786259542,3.267175572519084,-20.0381679389313,-0.7422025146484375,-1.608903515625,9.234435803222656,30.08294117647059
2025-10-20T16:32:40.909019,-33.396946564885496,3.4732824427480917,-20.17557251908397,-0.8164227661132812,-1.6304513305664061,9.354145886230468,29.941764705882356
2025-10-20T16:32:40.925867,-35.37404580152672,3.2595419847328246,-20.396946564885496,-0.7661445312499999,-2.1883003173828124,8.980650427246093,29.988823529411768
2025-10-20T16:32:40.942710,-34.38167938931298,2.984732824427481,-20.374045801526716,-0.7805097412109374,-2.980781066894531,8.75320126953125,29.988823529411768
2025-10-20T16:32:40.959551,-30.587786259541986,2.6946564885496183,-20.0,-0.39743747558593745,-3.6583401367187496,8.415618835449218,29.988823529411768
2025-10-20T16:32:40.976388,-24.374045801526716,2.236641221374046,-19.396946564885496,-0.143652099609375,-4.04141240234375,8.422801440429687,30.03588235294118
2025-10-20T16:32:40.993233,-18.00763358778626,2.183206106870229,-18.236641221374047,0.2537853759765625,-4.611232397460937,8.492233288574218,29.988823529411768
2025-10-20T16:32:41.010080,-12.381679389312977,1.549618320610687,-16.893129770992367,0.35673604736328124,-4.534617944335937,8.415618835449218,30.03588235294118
2025-10-20T16:32:41.026921,-7.916030534351145,1.8473282442748091,-15.206106870229007,0.41898529052734373,-4.417302062988281,8.382100012207031,29.941764705882356
2025-10-20T16:32:41.043772,-3.9770992366412212,1.8625954198473282,-13.610687022900763,0.46686932373046874,-3.852270471191406,8.662221606445312,30.08294117647059
2025-10-20T16:32:41.060615,-0.7175572519083969,2.0610687022900764,-12.053435114503817,0.5961562133789062,-3.6343981201171873,8.769960681152343,30.03588235294118
2025-10-20T16:32:41.077455,2.1908396946564888,2.183206106870229,-10.267175572519085,0.6416460449218749,-3.394977954101562,8.939948999023438,29.988823529411768
2025-10-20T16:32:41.094295,3.7022900763358777,2.3587786259541983,-8.633587786259541,0.6272808349609375,-3.124433166503906,9.145850341796875,30.08294117647059
2025-10-20T16:32:41.111135,2.4656488549618323,3.0,-7.068702290076335,0.41419688720703124,-2.7437551025390623,9.251195214843749,29.941764705882356
2025-10-20T16:32:41.128054,-0.6335877862595419,3.6030534351145036,-6.0534351145038165,0.18914193115234373,-2.3415292236328122,9.421183532714844,29.988823529411768
2025-10-20T16:32:41.144922,-5.068702290076335,1.9618320610687023,-5.137404580152672,-0.1771709228515625,-1.9393033447265624,9.275137231445312,29.941764705882356
2025-10-20T16:32:41.161770,-9.15267175572519,4.068702290076335,-4.427480916030534,-0.2705447875976562,-1.879448303222656,9.344569079589844,29.89470588235294
2025-10-20T16:32:41.178869,-11.534351145038167,3.984732824427481,-4.137404580152672,-0.4165910888671875,-2.142810485839844,9.287108239746093,29.988823529411768
2025-10-20T16:32:41.195733,-13.50381679389313,4.038167938931298,-3.687022900763359,-0.3327940307617187,-2.185906115722656,9.220070593261719,29.941764705882356
2025-10-20T16:32:41.212577,-15.82442748091603,3.900763358778626,-3.33587786259542,-0.41898529052734373,-2.4061726684570313,9.153032946777342,30.08294117647059
2025-10-20T16:32:41.229419,-18.908396946564885,3.648854961832061,-3.1374045801526718,-0.4213794921875,-2.4851813232421875,8.90643017578125,29.988823529411768
2025-10-20T16:32:41.246806,-22.14503816793893,3.4885496183206106,-2.969465648854962,-0.3902548706054687,-2.559401574707031,8.9255837890625,30.03588235294118
2025-10-20T16:32:41.263677,-24.16030534351145,2.8702290076335877,-2.954198473282443,-0.4333505004882812,-2.722207287597656,8.750807067871094,29.988823529411768
2025-10-20T16:32:41.280517,-24.595419847328245,2.6564885496183206,-3.1297709923664123,-0.34715924072265625,-2.6862942626953124,8.643067993164061,29.941764705882356
2025-10-20T16:32:41.297366,-24.015267175572518,2.366412213740458,-3.4732824427480917,-0.258573779296875,-2.8802245971679685,8.650250598144531,29.988823529411768
2025-10-20T16:32:41.314212,-22.954198473282442,2.1755725190839694,-3.8625954198473282,-0.28969840087890625,-3.0789433349609374,8.43956085205078,29.988823529411768
2025-10-20T16:32:41.331058,-22.81679389312977,1.7404580152671756,-4.00763358778626,-0.39983167724609375,-3.2920272827148436,8.422801440429687,30.130000000000003
2025-10-20T16:32:41.347910,-22.0381679389313,1.450381679389313,-4.396946564885496,-0.42377369384765623,-3.3710359375,8.259995727539062,30.08294117647059
2025-10-20T16:32:41.364759,-20.52671755725191,1.1221374045801527,-4.183206106870229,-0.3136404174804687,-3.6296097167968746,8.192958081054687,29.988823529411768
2025-10-20T16:32:41.381606,-17.442748091603054,0.7633587786259542,-4.0458015267175576,-0.42377369384765623,-3.69664736328125,8.130708837890625,30.03588235294118
2025-10-20T16:32:41.398449,-15.603053435114504,-0.0916030534351145,-3.618320610687023,-0.2059013427734375,-3.7158009765625,8.176198669433592,30.08294117647059
2025-10-20T16:32:41.415292,-10.549618320610687,-0.5114503816793893,-2.7938931297709924,-0.143652099609375,-3.976768957519531,8.21690009765625,30.03588235294118
2025-10-20T16:32:41.432132,-7.854961832061068,-0.916030534351145,-1.8015267175572518,0.01915361328125,-4.127603662109375,8.25520732421875,30.130000000000003
2025-10-20T16:32:41.448970,-5.984732824427481,-1.3053435114503817,-0.6717557251908397,0.0143652099609375,-4.091690637207031,8.267178332519531,29.988823529411768
2025-10-20T16:32:41.465810,-4.786259541984733,-2.0229007633587788,0.5877862595419847,0.09337386474609374,-3.88818349609375,8.494627490234375,29.988823529411768
2025-10-20T16:32:41.482654,-3.267175572519084,-2.6259541984732824,1.8931297709923665,0.1149216796875,-3.754108203125,8.506598498535157,29.941764705882356
2025-10-20T16:32:41.499742,-2.114503816793893,-2.633587786259542,3.2519083969465647,-0.00718260498046875,-3.545812658691406,8.497021691894531,29.988823529411768
2025-10-20T16:32:41.516606,-1.3740458015267176,-2.7251908396946565,4.641221374045801,-0.0718260498046875,-3.394977954101562,8.863334545898438,29.988823529411768
2025-10-20T16:32:41.533459,-1.7709923664122138,-2.732824427480916,3.984732824427481,-0.17477672119140625,-3.438073583984375,8.717288244628906,29.941764705882356
2025-10-20T16:32:41.550325,-2.969465648854962,-2.0610687022900764,7.32824427480916,-0.4381389038085937,-3.447650390625,8.750807067871094,29.988823529411768
2025-10-20T16:32:41.567176,-5.190839694656488,-1.6106870229007633,8.48091603053435,-0.354341845703125,-3.303998291015625,8.762778076171875,30.03588235294118
2025-10-20T16:32:41.584024,-6.374045801526718,-1.1908396946564885,9.465648854961833,-0.40222587890625,-3.421314172363281,8.623914379882812,30.03588235294118
2025-10-20T16:32:41.600872,-6.572519083969466,-0.8854961832061069,10.16793893129771,-0.2753331909179687,-3.574543078613281,8.755595471191405,29.988823529411768
2025-10-20T16:32:41.617721,-5.656488549618321,-0.48091603053435117,10.511450381679388,-0.201112939453125,-4.027047192382812,8.719682446289061,30.03588235294118
2025-10-20T16:32:41.634562,-4.236641221374046,-0.16030534351145037,10.725190839694656,-0.03591302490234375,-3.833116857910156,8.588001354980468,30.130000000000003
2025-10-20T16:32:41.651409,-3.6946564885496183,0.26717557251908397,11.083969465648854,-0.05985504150390625,-3.9552211425781247,8.535328918457031,30.08294117647059
2025-10-20T16:32:41.668257,-3.7022900763358777,0.6564885496183206,10.98473282442748,-0.02633621826171875,-3.890577697753906,8.427589843749999,29.988823529411768
2025-10-20T16:32:41.685099,-3.877862595419847,1.0,10.793893129770993,0.10773907470703124,-3.8091748413085935,8.394071020507813,30.03588235294118
2025-10-20T16:32:41.701945,-2.946564885496183,1.282442748091603,10.633587786259541,0.016759411621093748,-3.7397429931640622,8.461108666992187,29.988823529411768
2025-10-20T16:32:41.718786,-0.8625954198473282,1.251908396946565,10.32824427480916,-0.031124621582031248,-3.699041564941406,8.28633194580078,30.08294117647059
2025-10-20T16:32:41.735633,1.816793893129771,1.3740458015267176,10.15267175572519,-0.16041151123046873,-3.708618371582031,8.410830432128906,30.03588235294118
2025-10-20T16:32:41.752479,4.099236641221374,1.6412213740458015,9.870229007633588,-0.26336218261718747,-3.4548329956054684,8.343792785644531,29.988823529411768
2025-10-20T16:32:41.769315,5.091603053435114,1.5801526717557253,9.450381679389313,-0.5626373901367188,-3.2058360229492187,8.259995727539062,29.988823529411768
2025-10-20T16:32:41.786157,5.740458015267175,1.5877862595419847,8.618320610687023,-0.51714755859375,-3.057395520019531,8.281543542480469,30.130000000000003
2025-10-20T16:32:41.803010,6.412213740458015,1.1450381679389312,8.030534351145038,-0.5219359619140624,-3.105279553222656,8.425195642089843,30.03588235294118
2025-10-20T16:32:41.819864,8.32824427480916,1.015267175572519,7.145038167938932,-0.4860229370117187,-3.1100679565429687,8.382100012207031,29.988823529411768
2025-10-20T16:32:41.836718,10.687022900763358,0.40458015267175573,6.190839694656488,-0.39983167724609375,-3.306392492675781,8.329427575683594,30.03588235294118
2025-10-20T16:32:41.853569,13.320610687022901,-1.9465648854961832,5.320610687022901,-0.27293898925781246,-3.3327287109375,8.532934716796875,30.08294117647059
2025-10-20T16:32:41.870411,13.641221374045802,-0.19083969465648856,4.8396946564885495,-0.06943184814453125,-3.318363500976562,8.688557824707031,29.988823529411768
2025-10-20T16:32:41.887252,15.610687022900763,-0.24427480916030533,4.251908396946565,0.06703764648437499,-3.459621398925781,8.530540515136718,29.941764705882356
2025-10-20T16:32:41.904099,14.282442748091603,-0.3893129770992366,3.648854961832061,0.12449848632812499,-3.8474820678710935,8.365340600585936,29.941764705882356
2025-10-20T16:32:41.920943,16.946564885496183,-1.0763358778625953,3.1908396946564888,0.3687070556640625,-3.9695863525390624,8.348581188964843,30.08294117647059
2025-10-20T16:32:41.937791,19.900763358778626,-1.1603053435114503,2.7022900763358777,0.42377369384765623,-3.651157531738281,8.51617530517578,29.988823529411768
2025-10-20T16:32:41.954634,21.412213740458014,-1.16793893129771,2.5572519083969465,0.43574470214843747,-3.134009973144531,8.920795385742187,30.03588235294118
2025-10-20T16:32:41.971513,20.31297709923664,-1.1145038167938932,2.6946564885496183,0.3280056274414062,-2.741360900878906,9.22485899658203,29.988823529411768
2025-10-20T16:32:41.988369,16.83206106870229,-0.2748091603053435,2.931297709923664,0.22266075439453123,-2.4301146850585935,9.291896643066405,29.941764705882356
2025-10-20T16:32:42.005217,12.473282442748092,0.7099236641221374,3.33587786259542,-0.13646949462890623,-2.0829554443359375,9.26316622314453,29.988823529411768
2025-10-20T16:32:42.022067,7.3893129770992365,1.3053435114503817,3.9770992366412212,-0.25139117431640623,-2.1308394775390624,9.354145886230468,29.988823529411768
2025-10-20T16:32:42.038998,2.015267175572519,1.9083969465648856,4.290076335877862,-0.40940848388671874,-2.0973206542968748,9.370905297851563,29.988823529411768
2025-10-20T16:32:42.055864,-3.786259541984733,2.351145038167939,4.748091603053435,-0.5099649536132812,-2.0781670410156248,9.567229833984374,30.03588235294118
2025-10-20T16:32:42.072713,-10.381679389312977,2.7404580152671754,4.8396946564885495,-0.4955997436523437,-2.2170307373046874,9.753977563476562,30.03588235294118
2025-10-20T16:32:42.089559,-17.213740458015266,3.1755725190839694,4.709923664122138,-0.4572925170898437,-2.3965958618164063,9.739612353515625,29.988823529411768
2025-10-20T16:32:42.106406,-23.99236641221374,3.381679389312977,4.221374045801527,-0.3806780639648437,-2.6144682128906247,9.579200842285156,29.988823529411768
2025-10-20T16:32:42.123259,-29.519083969465647,3.3587786259541983,3.8625954198473282,-0.3112462158203125,-2.6815058593749996,9.433154541015625,30.130000000000003
2025-10-20T16:32:42.140105,-34.13740458015267,3.2595419847328246,2.984732824427481,-0.21787235107421873,-2.5043349365234375,9.129090930175781,30.08294117647059
2025-10-20T16:32:42.156948,-37.396946564885496,3.2748091603053435,1.9465648854961832,-0.20350714111328125,-2.473210314941406,8.975862023925782,30.08294117647059
2025-10-20T16:32:42.173802,-39.31297709923664,3.2748091603053435,0.8625954198473282,-0.1484405029296875,-2.5330653564453125,8.786720092773438,30.03588235294118
2025-10-20T16:32:42.190649,-39.717557251908396,3.1374045801526718,0.1297709923664122,-0.09576806640624999,-2.6599580444335937,8.731653454589843,30.08294117647059
2025-10-20T16:32:42.207491,-38.41984732824427,3.4198473282442747,-0.9389312977099237,-0.00718260498046875,-3.1579519897460937,8.55448253173828,29.988823529411768
2025-10-20T16:32:42.224339,-35.99236641221374,3.6259541984732824,-1.8473282442748091,-0.16759411621093748,-3.4715924072265625,8.161833459472655,30.03588235294118
2025-10-20T16:32:42.241182,-31.99236641221374,3.2442748091603053,-2.50381679389313,-0.3016694091796875,-3.8043864379882812,7.936778503417968,29.988823529411768
2025-10-20T16:32:42.258030,-26.374045801526716,2.83206106870229,-3.2290076335877864,-0.32561142578124996,-4.261678955078125,7.520187414550781,30.08294117647059
2025-10-20T16:32:42.274871,-18.954198473282442,2.6564885496183206,-3.6030534351145036,-0.37828386230468747,-4.44363828125,7.474697583007812,30.03588235294118
2025-10-20T16:32:42.291712,-10.908396946564885,1.6641221374045803,-4.190839694656488,-0.4477157104492187,-4.469974499511719,7.596801867675781,29.988823529411768
2025-10-20T16:32:42.308627,-3.427480916030534,1.0076335877862594,-4.763358778625954,-0.4285620971679687,-4.450820886230469,7.752424975585937,29.941764705882356
2025-10-20T16:32:42.325647,2.9770992366412212,0.2824427480916031,-5.022900763358779,-0.16998831787109375,-4.211400720214844,7.953537915039062,30.03588235294118
2025-10-20T16:32:42.342576,8.50381679389313,-0.42748091603053434,-5.488549618320611,-0.469263525390625,-4.120421057128906,8.030152368164062,29.988823529411768
2025-10-20T16:32:42.359704,13.618320610687023,-1.2442748091603053,-5.564885496183206,-0.47644613037109373,-4.106055847167968,8.044517578125,30.03588235294118
2025-10-20T16:32:42.376543,18.213740458015266,-2.1068702290076335,-5.6183206106870225,-0.45968671875,-3.8474820678710935,7.989450939941406,29.988823529411768
2025-10-20T16:32:42.393364,22.49618320610687,-2.8091603053435112,-5.404580152671755,-0.40462008056640625,-3.782838623046875,8.21690009765625,29.988823529411768
2025-10-20T16:32:42.410189,25.572519083969464,-3.5419847328244276,-5.091603053435114,-0.45968671875,-3.7421371948242186,8.51617530517578,30.03588235294118
2025-10-20T16:32:42.427013,26.938931297709924,-4.267175572519084,-4.633587786259542,-0.29927520751953124,-3.7110125732421873,8.82981572265625,29.941764705882356
2025-10-20T16:32:42.443837,26.52671755725191,-1.9770992366412214,-3.969465648854962,-0.38786066894531246,-3.938461730957031,8.86812294921875,30.08294117647059
2025-10-20T16:32:42.460699,26.396946564885496,-4.114503816793893,-3.4198473282442747,-0.4572925170898437,-4.120421057128906,9.052476477050782,30.03588235294118
2025-10-20T16:32:42.477552,26.358778625954198,-4.076335877862595,-2.572519083969466,-0.373495458984375,-4.285620971679688,9.028534460449219,30.03588235294118
2025-10-20T16:32:42.494397,26.801526717557252,-4.145038167938932,-1.8549618320610688,-0.5578489868164063,-4.302380383300781,8.978256225585938,29.988823529411768
2025-10-20T16:32:42.511242,26.12213740458015,-5.8320610687022905,-0.9236641221374046,-0.38307226562499996,-4.125209460449218,9.117119921875,30.03588235294118
2025-10-20T16:32:42.528089,23.770992366412212,-3.183206106870229,-0.2900763358778626,-0.44532150878906246,-3.806780639648437,9.327809667968749,29.941764705882356
2025-10-20T16:32:42.544943,20.083969465648856,-2.4885496183206106,0.1450381679389313,-0.5578489868164063,-3.4715924072265625,9.485826977539062,30.08294117647059
2025-10-20T16:32:42.561789,16.106870229007633,-1.4961832061068703,0.3435114503816794,-0.5578489868164063,-3.402160559082031,9.358934289550781,29.941764705882356
2025-10-20T16:32:42.578633,13.877862595419847,-1.1374045801526718,0.31297709923664124,-0.6057330200195312,-3.39018955078125,9.229647399902344,30.03588235294118
2025-10-20T16:32:42.595477,12.526717557251908,-0.648854961832061,0.3969465648854962,-0.679953271484375,-3.5817256835937497,9.04050546875,29.988823529411768
2025-10-20T16:32:42.612316,12.083969465648854,-0.4961832061068702,0.12213740458015267,-0.6512228515624999,-3.337517114257812,9.047688073730468,29.988823529411768
2025-10-20T16:32:42.629156,10.442748091603054,-0.44274809160305345,-0.10687022900763359,-0.6679822631835937,-3.057395520019531,9.090783703613281,30.03588235294118
2025-10-20T16:32:42.646002,7.297709923664122,-0.3282442748091603,-0.2824427480916031,-0.6679822631835937,-2.887407202148437,9.222464794921875,29.988823529411768
2025-10-20T16:32:42.662850,4.32824427480916,-0.2595419847328244,-0.8702290076335878,-0.6679822631835937,-2.8945898071289062,9.165003955078124,30.03588235294118
2025-10-20T16:32:42.679690,2.648854961832061,-0.6946564885496184,-1.465648854961832,-0.6344634399414062,-2.863465185546875,8.959102612304687,30.03588235294118
2025-10-20T16:32:42.696528,3.3969465648854964,-1.3511450381679388,-2.0610687022900764,-0.5506663818359374,-3.047818713378906,8.856151940917968,30.08294117647059
2025-10-20T16:32:42.713365,5.137404580152672,-1.8625954198473282,-2.435114503816794,-0.5506663818359374,-2.9975404785156248,8.671798413085938,30.177058823529414
2025-10-20T16:32:42.730227,7.114503816793893,-2.2977099236641223,-2.5572519083969465,-0.45968671875,-2.959233251953125,8.655039001464843,30.03588235294118
2025-10-20T16:32:42.747084,7.687022900763359,-2.954198473282443,-2.885496183206107,-0.33039982910156246,-2.798821740722656,8.595183959960938,30.08294117647059
2025-10-20T16:32:42.763937,7.3816793893129775,-3.236641221374046,-3.0076335877862594,-0.3232172241210937,-2.6862942626953124,8.743624462890624,30.03588235294118
2025-10-20T16:32:42.780777,7.526717557251908,-3.1908396946564888,-2.9618320610687023,-0.373495458984375,-2.6312276245117188,8.59278975830078,30.03588235294118
2025-10-20T16:32:42.797626,9.251908396946565,-3.564885496183206,-3.0916030534351147,-0.3495534423828125,-2.3343466186523436,8.626308581542968,29.89470588235294
2025-10-20T16:32:42.814535,12.465648854961833,-3.6412213740458017,-2.83206106870229,-0.373495458984375,-2.1930887207031247,8.63109698486328,29.941764705882356
2025-10-20T16:32:42.831411,16.14503816793893,-3.7022900763358777,-2.7022900763358777,-0.612915625,-1.946485949707031,8.63827958984375,29.988823529411768
2025-10-20T16:32:42.848269,18.702290076335878,-3.7938931297709924,-2.2061068702290076,-0.4908113403320312,-1.7022773803710936,8.67658681640625,29.941764705882356
2025-10-20T16:32:42.865192,19.236641221374047,-3.9083969465648853,-1.5877862595419847,-0.42377369384765623,-1.4796166259765624,8.798691101074219,30.08294117647059
2025-10-20T16:32:42.882137,18.610687022900763,-3.6259541984732824,-0.9389312977099237,-0.35673604736328124,-1.5083470458984374,9.076418493652342,30.08294117647059
2025-10-20T16:32:42.898997,18.389312977099237,-3.931297709923664,-0.4961832061068702,-0.44532150878906246,-1.5849614990234373,9.085995300292968,29.988823529411768
2025-10-20T16:32:42.915842,17.610687022900763,-4.076335877862595,-0.1450381679389313,-0.36152445068359373,-1.6112977172851561,9.181763366699219,29.941764705882356
2025-10-20T16:32:42.932684,22.045801526717558,-4.740458015267175,0.12213740458015267,-0.239420166015625,-1.6424223388671875,9.117119921875,30.08294117647059
2025-10-20T16:32:42.949949,24.916030534351144,-4.702290076335878,0.32061068702290074,-0.16280571289062498,-1.6208745239257811,9.126696728515624,30.08294117647059
2025-10-20T16:32:42.966837,26.732824427480917,-5.122137404580153,0.5954198473282443,-0.277727392578125,-1.7932570434570312,9.320627062988281,30.130000000000003
2025-10-20T16:32:42.983693,27.091603053435115,-5.3893129770992365,1.1068702290076335,-0.11731588134765625,-1.6232687255859375,9.255983618164063,30.08294117647059
2025-10-20T16:32:43.000541,26.793893129770993,-4.99236641221374,1.4809160305343512,-0.105344873046875,-1.7334020019531249,9.299079248046874,30.08294117647059
2025-10-20T16:32:43.017391,27.48854961832061,-4.740458015267175,2.1755725190839694,-0.01915361328125,-1.6831237670898436,9.208099584960937,30.03588235294118
2025-10-20T16:32:43.034235,29.290076335877863,-4.267175572519084,2.480916030534351,0.055066638183593745,-1.695094775390625,9.165003955078124,29.988823529411768
2025-10-20T16:32:43.051078,31.709923664122137,-3.687022900763359,2.931297709923664,0.05027823486328125,-1.6424223388671875,9.129090930175781,29.988823529411768
2025-10-20T16:32:43.067928,33.62595419847328,-3.0381679389312977,3.381679389312977,-0.047884033203124995,-1.3910311645507811,9.057264880371093,30.03588235294118
2025-10-20T16:32:43.084774,33.66412213740458,-2.3435114503816794,4.091603053435114,-0.016759411621093748,-1.197100830078125,9.064447485351561,30.08294117647059
2025-10-20T16:32:43.101616,32.038167938931295,-1.5877862595419847,4.687022900763359,-0.08858546142578125,-1.0223241088867188,9.241618408203124,30.03588235294118
2025-10-20T16:32:43.118459,30.129770992366414,-1.465648854961832,5.175572519083969,-0.1197100830078125,-1.0486603271484374,9.289502441406249,29.941764705882356
2025-10-20T16:32:43.135307,28.938931297709924,-1.0458015267175573,5.66412213740458,-0.06943184814453125,-0.9313444458007812,9.358934289550781,30.08294117647059
2025-10-20T16:32:43.152145,28.84732824427481,-1.1603053435114503,7.801526717557252,0.0383072265625,-0.8547299926757812,9.303867651367186,30.03588235294118
2025-10-20T16:32:43.168985,28.931297709923665,-1.8015267175572518,5.9465648854961835,0.04548983154296875,-0.6368576416015624,9.270348828125,29.988823529411768
2025-10-20T16:32:43.185831,28.137404580152673,-2.4122137404580153,6.030534351145038,0.15322890625,-0.6607996582031249,9.311050256347656,30.08294117647059
2025-10-20T16:32:43.202682,25.770992366412212,-2.687022900763359,6.152671755725191,0.18435352783203124,-0.5985504150390625,9.296685046386719,30.03588235294118
2025-10-20T16:32:43.219536,22.68702290076336,-3.099236641221374,6.061068702290076,0.22744915771484372,-0.699106884765625,9.325415466308593,30.08294117647059
2025-10-20T16:32:43.236378,19.595419847328245,-3.099236641221374,6.236641221374046,0.2154781494140625,-0.737414111328125,9.332598071289063,29.988823529411768
2025-10-20T16:32:43.253219,17.435114503816795,-2.8931297709923665,5.977099236641221,0.23702596435546874,-0.7517793212890624,9.22485899658203,30.03588235294118
2025-10-20T16:32:43.270073,16.61832061068702,-2.6564885496183206,5.908396946564886,0.26815058593749996,-0.5674257934570313,9.210493786621093,29.988823529411768
2025-10-20T16:32:43.286918,13.740458015267176,-2.267175572519084,5.679389312977099,0.4070142822265625,-0.354341845703125,9.179369165039063,30.03588235294118
2025-10-20T16:32:43.303760,13.992366412213741,-1.717557251908397,5.343511450381679,0.24899697265624998,-0.38307226562499996,9.198522778320312,30.03588235294118
2025-10-20T16:32:43.320602,10.603053435114504,-0.8473282442748091,5.3816793893129775,0.2442085693359375,-0.4165910888671875,9.428366137695312,29.988823529411768
2025-10-20T16:32:43.337622,7.305343511450381,0.17557251908396945,5.458015267175573,0.2537853759765625,-0.5482721801757812,9.337386474609374,30.08294117647059
2025-10-20T16:32:43.354492,4.106870229007634,0.45038167938931295,5.3816793893129775,0.13407529296874998,-0.4860229370117187,9.327809667968749,29.941764705882356
2025-10-20T16:32:43.371324,2.1297709923664123,0.4351145038167939,5.152671755725191,-0.009576806640625,-0.5003881469726562,9.366116894531249,29.988823529411768
2025-10-20T16:32:43.388158,1.0381679389312977,0.5419847328244275,4.908396946564886,0.0,-0.42377369384765623,9.404424121093749,29.988823529411768
2025-10-20T16:32:43.405009,-0.16030534351145037,0.37404580152671757,4.8320610687022905,-0.09816226806640624,-0.33039982910156246,9.411606726074218,30.03588235294118
2025-10-20T16:32:43.421865,-0.04580152671755725,-0.1297709923664122,4.679389312977099,-0.28730419921875,-0.21787235107421873,9.323021264648437,29.988823529411768
2025-10-20T16:32:43.438708,-4.6106870229007635,-0.6412213740458015,4.458015267175573,-0.1149216796875,-0.1292868896484375,9.366116894531249,29.941764705882356
2025-10-20T16:32:43.455552,-7.290076335877862,-0.8702290076335878,4.33587786259542,0.076614453125,0.09337386474609374,9.406818322753905,29.941764705882356
2025-10-20T16:32:43.472393,-9.84732824427481,-1.0305343511450382,4.00763358778626,0.11731588134765625,0.15322890625,9.425971936035156,29.89470588235294
2025-10-20T16:32:43.489233,-11.717557251908397,-1.4045801526717556,3.7938931297709924,0.23702596435546874,0.584185205078125,9.447519750976562,30.03588235294118
2025-10-20T16:32:43.506080,-13.603053435114504,-1.5190839694656488,3.5877862595419847,0.15562310791015624,0.5889736083984375,9.583989245605467,30.03588235294118
2025-10-20T16:32:43.522925,-15.19083969465649,-1.2900763358778626,3.2442748091603053,0.17477672119140625,0.6703764648437499,9.26316622314453,30.08294117647059
2025-10-20T16:32:43.539768,-17.259541984732824,-1.213740458015267,2.801526717557252,0.19632453613281248,0.6560112548828124,9.332598071289063,30.03588235294118
2025-10-20T16:32:43.556630,-19.450381679389313,-0.6030534351145038,2.572519083969466,0.24660277099609373,0.5123591552734374,9.33978067626953,30.08294117647059
2025-10-20T16:32:43.573481,-21.198473282442748,-0.4961832061068702,2.3206106870229006,0.23223756103515625,0.39983167724609375,9.469067565917967,29.988823529411768
2025-10-20T16:32:43.590333,-21.572519083969464,-0.3053435114503817,1.9083969465648856,0.04548983154296875,0.26336218261718747,9.318232861328125,29.941764705882356
2025-10-20T16:32:43.607182,-20.84732824427481,-0.6717557251908397,1.2061068702290076,0.02633621826171875,0.1388636962890625,9.421183532714844,29.988823529411768
2025-10-20T16:32:43.624033,-19.64885496183206,-0.7633587786259542,1.0229007633587786,-0.2825157958984375,-0.040701428222656245,9.303867651367186,29.941764705882356
2025-10-20T16:32:43.640876,-18.221374045801525,-1.1297709923664123,0.816793893129771,-0.1771709228515625,-0.09816226806640624,9.334992272949219,29.941764705882356
2025-10-20T16:32:43.657760,-17.091603053435115,-1.4427480916030535,0.3893129770992366,-0.19632453613281248,-0.2657563842773437,9.382876306152344,29.988823529411768
2025-10-20T16:32:43.674618,-15.389312977099237,-1.7633587786259541,0.3969465648854962,-0.14604630126953125,-0.4213794921875,9.567229833984374,30.03588235294118
2025-10-20T16:32:43.691465,-12.900763358778626,-1.6870229007633588,1.9389312977099236,-0.23702596435546874,-0.6248866333007812,9.222464794921875,29.89470588235294
2025-10-20T16:32:43.708314,-9.51908396946565,-1.900763358778626,-0.26717557251908397,-0.28969840087890625,-0.6631938598632812,9.291896643066405,29.941764705882356
2025-10-20T16:32:43.725245,-5.717557251908397,-2.145038167938931,-0.4198473282442748,-0.17956512451171874,-0.6679822631835937,9.222464794921875,29.988823529411768
2025-10-20T16:32:43.742111,-2.114503816793893,-2.015267175572519,-0.732824427480916,-0.11731588134765625,-0.6943184814453125,9.169792358398437,29.988823529411768
2025-10-20T16:32:43.758958,1.183206106870229,-1.6564885496183206,-0.7480916030534351,-0.09816226806640624,-0.689530078125,9.212887988281249,30.03588235294118
2025-10-20T16:32:43.775803,4.106870229007634,-1.5648854961832062,-0.5648854961832062,-0.04548983154296875,-0.584185205078125,9.131485131835937,29.988823529411768
2025-10-20T16:32:43.792657,7.061068702290076,-1.2442748091603053,-0.46564885496183206,0.1292868896484375,-0.5267243652343749,9.198522778320312,30.03588235294118
2025-10-20T16:32:43.809514,9.763358778625955,-1.2595419847328244,-0.366412213740458,-0.00718260498046875,-0.4836287353515625,9.323021264648437,29.988823529411768
2025-10-20T16:32:43.826361,11.84732824427481,-1.0,-0.04580152671755725,-0.05027823486328125,-0.44532150878906246,9.270348828125,29.988823529411768
2025-10-20T16:32:43.843205,13.114503816793894,-1.1068702290076335,0.022900763358778626,-0.07900865478515624,-0.05027823486328125,9.464279162597656,30.03588235294118
2025-10-20T16:32:43.860051,13.396946564885496,-1.1068702290076335,0.22900763358778625,-0.1005564697265625,-0.2059013427734375,9.504980590820312,30.08294117647059
2025-10-20T16:32:43.876902,12.717557251908397,-1.015267175572519,0.32061068702290074,-0.11731588134765625,-0.32561142578124996,9.514557397460937,29.988823529411768
2025-10-20T16:32:43.893752,12.366412213740459,-0.8091603053435115,0.31297709923664124,-0.13168109130859373,-0.40462008056640625,9.591171850585937,30.03588235294118
2025-10-20T16:32:43.910594,11.98473282442748,-0.9694656488549618,0.3816793893129771,-0.2059013427734375,-0.5267243652343749,9.488221179199218,29.988823529411768
2025-10-20T16:32:43.927435,11.65648854961832,-0.7786259541984732,0.25190839694656486,-0.18435352783203124,-0.5315127685546874,9.540893615722656,29.988823529411768
2025-10-20T16:32:43.944278,10.900763358778626,-0.7633587786259542,0.03816793893129771,-0.05746083984375,-0.47644613037109373,9.452308154296874,30.03588235294118
2025-10-20T16:32:43.961113,9.83206106870229,-0.20610687022900764,-0.061068702290076333,0.05985504150390625,-0.5793968017578125,9.445125549316407,29.988823529411768
2025-10-20T16:32:43.977954,8.48091603053435,0.4580152671755725,-0.1297709923664122,0.28490999755859375,-0.7589619262695312,9.447519750976562,29.988823529411768
2025-10-20T16:32:43.994793,7.450381679389313,1.0229007633587786,-0.20610687022900764,0.18914193115234373,-0.9696516723632812,9.382876306152344,30.03588235294118
2025-10-20T16:32:44.011628,7.00763358778626,2.145038167938931,-0.5343511450381679,0.26336218261718747,-1.218648645019531,9.1554271484375,30.03588235294118
2025-10-20T16:32:44.028470,6.916030534351145,2.648854961832061,-0.9618320610687023,0.17477672119140625,-0.97683427734375,9.165003955078124,29.988823529411768
2025-10-20T16:32:44.045321,6.816793893129771,3.3435114503816794,-1.3053435114503817,0.19871873779296872,-0.7733271362304687,9.069235888671875,29.941764705882356
2025-10-20T16:32:44.062179,6.129770992366412,3.5343511450381677,-1.3740458015267176,0.03591302490234375,-1.024718310546875,9.0788126953125,29.988823529411768
2025-10-20T16:32:44.079027,5.404580152671755,3.816793893129771,-1.297709923664122,0.07900865478515624,-0.9864110839843749,9.459490759277344,30.08294117647059
2025-10-20T16:32:44.095860,4.435114503816794,3.7404580152671754,-1.083969465648855,0.16519991455078123,-0.8068459594726562,9.430760339355468,29.941764705882356
2025-10-20T16:32:44.112703,3.1297709923664123,3.5877862595419847,-0.5801526717557252,0.062249243164062495,-0.6392518432617187,9.411606726074218,29.941764705882356
2025-10-20T16:32:44.129548,1.549618320610687,3.1374045801526718,-0.3511450381679389,0.05746083984375,-0.689530078125,9.392453112792968,29.988823529411768
2025-10-20T16:32:44.146391,0.26717557251908397,2.450381679389313,0.3053435114503817,-0.00718260498046875,-0.7326257080078125,9.344569079589844,29.988823529411768
2025-10-20T16:32:44.163236,-0.7709923664122137,1.7251908396946565,0.7404580152671756,0.02154781494140625,-0.7015010864257812,9.282319836425781,30.130000000000003
2025-10-20T16:32:44.180078,-2.0610687022900764,1.3969465648854962,1.2290076335877862,0.0047884033203125,-0.6464344482421874,9.3852705078125,29.988823529411768
2025-10-20T16:32:44.196923,-3.5114503816793894,1.1068702290076335,1.8396946564885497,0.181959326171875,-0.47884033203125,9.430760339355468,29.941764705882356
2025-10-20T16:32:44.213770,-5.458015267175573,1.1603053435114503,2.2290076335877864,0.40222587890625,-0.3806780639648437,9.464279162597656,29.941764705882356
2025-10-20T16:32:44.230611,-7.427480916030534,1.6030534351145038,2.877862595419847,0.20829554443359374,-0.201112939453125,9.368511096191405,30.08294117647059
2025-10-20T16:32:44.247452,-10.290076335877863,1.8091603053435115,3.145038167938931,0.23223756103515625,0.08379705810546874,9.49300958251953,30.03588235294118
2025-10-20T16:32:44.264295,-13.870229007633588,2.435114503816794,3.7709923664122136,0.2561795776367187,0.0,9.222464794921875,30.03588235294118
2025-10-20T16:32:44.281140,-15.702290076335878,3.351145038167939,4.221374045801527,0.3591302490234375,0.16759411621093748,9.445125549316407,29.988823529411768
2025-10-20T16:32:44.297989,-21.72519083969466,4.0458015267175576,4.66412213740458,0.38307226562499996,0.11731588134765625,9.512163195800781,30.03588235294118
2025-10-20T16:32:44.314829,-23.50381679389313,4.404580152671755,4.969465648854962,0.5243301635742187,0.14604630126953125,9.452308154296874,30.03588235294118
2025-10-20T16:32:44.331674,-29.671755725190838,5.015267175572519,5.305343511450381,0.43574470214843747,0.316034619140625,9.526528405761718,29.988823529411768
2025-10-20T16:32:44.348513,-33.847328244274806,4.984732824427481,5.145038167938932,0.45489831542968745,0.488417138671875,9.411606726074218,29.988823529411768
2025-10-20T16:32:44.365353,-37.954198473282446,4.656488549618321,5.015267175572519,0.36391865234375,0.5291185668945312,9.296685046386719,30.03588235294118
2025-10-20T16:32:44.382194,-41.19083969465649,4.137404580152672,4.564885496183206,0.45010991210937495,0.507570751953125,9.246406811523437,30.08294117647059
2025-10-20T16:32:44.399033,-43.221374045801525,3.4122137404580153,1.9541984732824427,0.17956512451171874,0.3711012573242187,9.253589416503905,29.988823529411768
2025-10-20T16:32:44.415886,-44.42748091603053,2.572519083969466,3.068702290076336,0.062249243164062495,0.277727392578125,9.17458076171875,29.84764705882353
2025-10-20T16:32:44.432736,-44.62595419847328,1.748091603053435,2.1603053435114505,-0.12449848632812499,0.0526724365234375,9.090783703613281,29.988823529411768
2025-10-20T16:32:44.449584,-43.778625954198475,1.4198473282442747,1.2671755725190839,-0.28969840087890625,-0.21308394775390624,8.825027319335938,30.08294117647059
2025-10-20T16:32:44.466428,-41.80152671755725,0.5725190839694656,0.2748091603053435,-0.36152445068359373,-0.5578489868164063,8.817844714355468,30.03588235294118
2025-10-20T16:32:44.483274,-38.13740458015267,-0.11450381679389313,-1.0305343511450382,-0.5339069702148437,-1.0654197387695312,8.664615808105468,30.08294117647059
2025-10-20T16:32:44.500165,-33.725190839694655,-0.6412213740458015,-2.0610687022900764,-0.5003881469726562,-1.5083470458984374,8.640673791503906,29.941764705882356
2025-10-20T16:32:44.517017,-28.290076335877863,-1.1450381679389312,-3.0839694656488548,-0.4285620971679687,-1.675941162109375,8.767566479492187,29.941764705882356
2025-10-20T16:32:44.533869,-23.19083969465649,-1.1984732824427482,-4.106870229007634,-0.36631285400390623,-1.7693150268554687,8.659827404785156,29.89470588235294
2025-10-20T16:32:44.550719,-18.35114503816794,-1.3435114503816794,-4.870229007633588,-0.3327940307617187,-1.7980454467773437,8.786720092773438,29.988823529411768
2025-10-20T16:32:44.567658,-13.145038167938932,-1.3053435114503817,-5.374045801526718,-0.18914193115234373,-1.9105729248046874,8.702923034667968,30.08294117647059
2025-10-20T16:32:44.584517,-7.580152671755725,-1.2595419847328244,-5.480916030534351,-0.2154781494140625,-2.0254946044921875,8.647856396484375,30.03588235294118
2025-10-20T16:32:44.601363,-1.6106870229007633,-1.6946564885496183,-5.106870229007634,-0.2346317626953125,-2.1906945190429687,8.724470849609375,29.988823529411768
2025-10-20T16:32:44.618209,4.32824427480916,-1.8854961832061068,-4.3816793893129775,-0.08379705810546874,-2.511517541503906,8.86094034423828,29.988823529411768
2025-10-20T16:32:44.635061,10.183206106870228,-2.480916030534351,-3.5267175572519083,-0.08858546142578125,-2.6240450195312497,8.86812294921875,30.130000000000003
2025-10-20T16:32:44.651918,16.46564885496183,-3.1374045801526718,-2.282442748091603,-0.23702596435546874,-2.89219560546875,8.74601866455078,30.08294117647059
2025-10-20T16:32:44.668770,21.541984732824428,-4.595419847328245,-1.16793893129771,-0.1149216796875,-3.2800562744140622,8.750807067871094,30.03588235294118
2025-10-20T16:32:44.685629,31.198473282442748,-5.473282442748092,0.16793893129770993,0.01915361328125,-3.660734338378906,8.79150849609375,29.941764705882356
2025-10-20T16:32:44.702473,39.83206106870229,-6.793893129770993,0.8931297709923665,0.19393033447265623,-3.706224169921875,8.796296899414061,29.988823529411768
2025-10-20T16:32:44.719319,47.534351145038165,-7.427480916030534,1.7633587786259541,0.3495534423828125,-3.3446997192382812,8.798691101074219,29.988823529411768
2025-10-20T16:32:44.736162,54.98473282442748,-8.114503816793894,2.4427480916030535,0.20829554443359374,-3.071760729980469,8.911218579101561,30.03588235294118
2025-10-20T16:32:44.753004,61.465648854961835,-8.488549618320612,3.213740458015267,0.05985504150390625,-2.834734765625,8.89924757080078,30.08294117647059
2025-10-20T16:32:44.769852,67.32824427480917,-8.419847328244275,3.6412213740458017,0.07422025146484375,-2.370259643554687,8.94473740234375,30.03588235294118
2025-10-20T16:32:44.786699,71.97709923664122,-8.061068702290076,3.854961832061069,-0.06943184814453125,-1.707065783691406,9.02135185546875,30.03588235294118
2025-10-20T16:32:44.803545,74.41984732824427,-7.656488549618321,5.824427480916031,-0.2825157958984375,-1.2042834350585936,9.294290844726563,29.988823529411768
2025-10-20T16:32:44.820390,74.42748091603053,-7.244274809160306,3.969465648854962,-0.22505495605468748,-0.3591302490234375,9.651026892089844,30.03588235294118
2025-10-20T16:32:44.837232,72.12977099236642,-6.282442748091603,3.5877862595419847,-0.181959326171875,0.20829554443359374,9.629479077148437,30.03588235294118
2025-10-20T16:32:44.854073,68.82442748091603,-5.1679389312977095,3.6412213740458017,-0.23702596435546874,0.5602431884765625,9.414000927734374,30.08294117647059
2025-10-20T16:32:44.870915,66.41221374045801,-4.557251908396947,3.4122137404580153,-0.06464344482421874,1.0534487304687499,9.466673364257812,29.941764705882356
2025-10-20T16:32:44.887790,58.74045801526717,-3.984732824427481,2.954198473282443,-0.076614453125,1.2689268798828124,9.713276135253906,29.988823529411768
2025-10-20T16:32:44.904643,51.41984732824427,-3.1374045801526718,2.435114503816794,0.009576806640625,1.3383587280273437,10.038887561035155,30.08294117647059
2025-10-20T16:32:44.921485,43.10687022900763,-2.045801526717557,1.7404580152671756,0.1005564697265625,1.2928688964843749,10.151415039062499,30.03588235294118
2025-10-20T16:32:44.938331,33.80152671755725,-1.6106870229007633,1.4274809160305344,0.1149216796875,1.4437036010742186,10.27830772705078,30.08294117647059
2025-10-20T16:32:44.955176,24.099236641221374,-1.099236641221374,1.3893129770992367,0.2537853759765625,1.235408056640625,10.218452685546874,29.988823529411768
2025-10-20T16:32:44.972033,13.923664122137405,-0.37404580152671757,1.213740458015267,0.0143652099609375,1.4125789794921875,10.079588989257813,30.03588235294118
2025-10-20T16:32:44.988883,5.633587786259542,0.5190839694656488,1.0534351145038168,0.10773907470703124,1.7262193969726563,10.122684619140625,30.08294117647059
2025-10-20T16:32:45.005724,-6.297709923664122,0.20610687022900764,0.5572519083969466,0.7613561279296874,1.7621324218749999,10.62307276611328,29.988823529411768
2025-10-20T16:32:45.022566,-18.099236641221374,3.2748091603053435,0.9007633587786259,0.48123453369140623,2.3965958618164063,10.338162768554687,30.03588235294118
2025-10-20T16:32:45.039420,-30.984732824427482,5.541984732824427,1.748091603053435,0.30406361083984373,3.143586779785156,10.213664282226562,30.08294117647059
2025-10-20T16:32:45.056279,-45.48091603053435,7.236641221374046,2.4122137404580153,0.3280056274414062,3.153163586425781,10.129867224121092,30.03588235294118
2025-10-20T16:32:45.073122,-56.70992366412214,9.381679389312977,3.145038167938931,0.6153098266601562,3.0526071166992184,9.885658654785155,29.941764705882356
2025-10-20T16:32:45.089977,-68.96946564885496,11.32824427480916,3.5419847328244276,0.4955997436523437,2.7844565307617186,9.883264453125,29.988823529411768
2025-10-20T16:32:45.106820,-77.06870229007633,11.931297709923664,3.4198473282442747,0.5291185668945312,2.461239306640625,9.667786303710937,30.08294117647059
2025-10-20T16:32:45.123664,-83.70229007633588,12.32824427480916,3.0,0.565031591796875,2.2385785522460937,9.7683427734375,29.941764705882356
2025-10-20T16:32:45.140508,-88.25190839694656,12.221374045801527,2.4427480916030535,0.5386953735351562,1.905784521484375,9.773131176757811,29.988823529411768
2025-10-20T16:32:45.157350,-92.07633587786259,12.366412213740459,2.1908396946564888,0.07422025146484375,0.9720458740234375,9.270348828125,30.03588235294118
2025-10-20T16:32:45.174192,-92.52671755725191,10.366412213740459,1.9618320610687023,0.1388636962890625,-0.19632453613281248,8.9255837890625,30.03588235294118
2025-10-20T16:32:45.191042,-89.50381679389314,8.755725190839694,1.8549618320610688,0.13168109130859373,-1.2808978881835937,8.571241943359375,29.89470588235294
2025-10-20T16:32:45.207884,-82.74809160305344,7.404580152671755,1.5038167938931297,0.14604630126953125,-1.9943699829101562,8.492233288574218,30.03588235294118
2025-10-20T16:32:45.224732,-73.56488549618321,5.67175572519084,1.0687022900763359,0.18435352783203124,-2.7964275390625,8.279149340820313,30.03588235294118
2025-10-20T16:32:45.241588,-64.45038167938931,4.656488549618321,0.5190839694656488,0.1005564697265625,-3.2728736694335936,8.070853796386718,29.988823529411768
2025-10-20T16:32:45.258441,-49.541984732824424,3.427480916030534,-0.03816793893129771,0.13168109130859373,-3.5290532470703124,7.805097412109374,30.03588235294118
2025-10-20T16:32:45.275285,-35.50381679389313,2.854961832061069,-0.9236641221374046,0.15562310791015624,-3.6391865234374996,7.60398447265625,29.988823529411768
2025-10-20T16:32:45.292139,-21.786259541984734,2.2290076335877864,-1.7557251908396947,0.19393033447265623,-3.1387983764648437,7.903259680175781,29.988823529411768
2025-10-20T16:32:45.308986,-10.236641221374045,2.198473282442748,-2.351145038167939,0.028730419921875,-2.2960393920898436,8.20971749267578,30.130000000000003
2025-10-20T16:32:45.325834,-1.984732824427481,2.33587786259542,-2.6793893129770994,0.05027823486328125,-1.3144167114257812,8.389282617187499,29.988823529411768
2025-10-20T16:32:45.342715,3.618320610687023,2.687022900763359,-2.9770992366412212,0.02633621826171875,-0.8882488159179687,8.621520178222656,30.03588235294118
2025-10-20T16:32:45.359567,7.557251908396947,2.450381679389313,-3.183206106870229,-0.011971008300781249,-0.16041151123046873,8.655039001464843,30.03588235294118
2025-10-20T16:32:45.376408,10.236641221374045,2.0763358778625953,-3.030534351145038,-0.36152445068359373,-0.48123453369140623,8.762778076171875,29.988823529411768
2025-10-20T16:32:45.393266,11.045801526717558,2.0763358778625953,-2.3740458015267176,-0.6464344482421874,-1.2018892333984375,8.863334545898438,30.03588235294118
2025-10-20T16:32:45.410148,10.534351145038167,-0.3969465648854962,-1.916030534351145,-0.6655880615234374,-0.30406361083984373,9.366116894531249,29.988823529411768
2025-10-20T16:32:45.427081,6.374045801526718,-1.8396946564885497,-1.0763358778625953,-0.41898529052734373,0.4213794921875,9.70369932861328,30.03588235294118
2025-10-20T16:32:45.443938,0.6412213740458015,-3.114503816793893,-0.44274809160305345,-0.4860229370117187,-0.3806780639648437,9.928754284667969,29.988823529411768
2025-10-20T16:32:45.460782,-4.473282442748092,-3.7557251908396947,-0.0916030534351145,-0.36631285400390623,-1.0127473022460938,9.658209497070311,29.988823529411768
2025-10-20T16:32:45.477627,-6.8320610687022905,-4.633587786259542,0.183206106870229,-0.21308394775390624,-1.886630908203125,9.133879333496093,30.03588235294118
2025-10-20T16:32:45.494476,-5.190839694656488,-5.603053435114504,0.35877862595419846,-0.031124621582031248,-3.0526071166992184,8.643067993164061,29.988823529411768
2025-10-20T16:32:45.511334,0.29770992366412213,-5.9541984732824424,0.9312977099236641,0.143652099609375,-4.168305090332031,8.410830432128906,30.03588235294118
2025-10-20T16:32:45.528187,6.824427480916031,-6.748091603053435,1.3206106870229009,0.21308394775390624,-4.436455676269531,8.530540515136718,30.03588235294118
2025-10-20T16:32:45.545036,11.572519083969466,-7.763358778625954,1.9694656488549618,-0.15322890625,-3.7158009765625,8.719682446289061,29.988823529411768
2025-10-20T16:32:45.561895,14.274809160305344,-4.877862595419847,2.3053435114503817,0.16041151123046873,-3.1483751831054687,8.844180932617187,29.941764705882356
2025-10-20T16:32:45.578746,16.374045801526716,-3.5419847328244276,2.122137404580153,0.21068974609375,-2.4013842651367185,8.693346228027343,30.03588235294118
2025-10-20T16:32:45.595607,19.374045801526716,-2.183206106870229,2.3740458015267176,0.06464344482421874,-1.93451494140625,8.789114294433594,30.08294117647059
2025-10-20T16:32:45.612449,23.396946564885496,-2.053435114503817,1.8702290076335877,-0.09576806640624999,-1.5873557006835937,8.817844714355468,29.941764705882356
2025-10-20T16:32:45.629295,27.198473282442748,-0.6717557251908397,2.0229007633587788,-0.488417138671875,-1.5251064575195312,8.8489693359375,30.08294117647059
2025-10-20T16:32:45.646141,29.366412213740457,-0.6335877862595419,2.045801526717557,-0.47884033203125,-1.4221557861328125,9.083601098632812,29.988823529411768
2025-10-20T16:32:45.662983,28.893129770992367,-0.816793893129771,2.5267175572519083,-0.5339069702148437,-1.4245499877929686,9.373299499511718,30.03588235294118
2025-10-20T16:32:45.679825,26.732824427480917,-1.1374045801526718,3.0916030534351147,-0.5147533569335937,-1.3335703247070312,9.655815295410155,30.08294117647059
2025-10-20T16:32:45.696670,25.396946564885496,-2.198473282442748,3.4656488549618323,-0.49320554199218747,-0.8571241943359375,9.65342109375,30.08294117647059
2025-10-20T16:32:45.713511,21.290076335877863,-2.900763358778626,3.8702290076335877,-0.737414111328125,-0.6655880615234374,9.610325463867188,30.130000000000003
2025-10-20T16:32:45.730354,20.206106870229007,-4.152671755725191,4.290076335877862,-0.5339069702148437,-0.5913678100585937,9.387664709472656,30.08294117647059
2025-10-20T16:32:45.747202,19.16793893129771,-5.427480916030534,4.3893129770992365,-0.30885201416015623,-0.7302315063476562,9.425971936035156,29.988823529411768
2025-10-20T16:32:45.764058,17.358778625954198,-5.679389312977099,4.564885496183206,-0.062249243164062495,-0.612915625,9.775525378417969,30.03588235294118
2025-10-20T16:32:45.780899,12.687022900763358,-5.0534351145038165,4.984732824427481,0.10295067138671875,-0.15083470458984374,9.842563024902343,30.08294117647059
2025-10-20T16:32:45.797750,5.656488549618321,-3.9083969465648853,5.312977099236641,0.1005564697265625,0.19153613281249998,9.957484704589843,30.08294117647059
2025-10-20T16:32:45.814610,-1.8244274809160306,-3.145038167938931,5.755725190839694,0.1388636962890625,0.06464344482421874,9.7683427734375,30.130000000000003
2025-10-20T16:32:45.831460,-7.7251908396946565,-1.0381679389312977,6.114503816793893,0.23223756103515625,-0.373495458984375,9.753977563476562,29.89470588235294
2025-10-20T16:32:45.848305,-10.045801526717558,0.9312977099236641,5.9465648854961835,0.34715924072265625,-0.8667010009765624,9.452308154296874,29.988823529411768
2025-10-20T16:32:45.865150,-10.358778625954198,3.16793893129771,5.6106870229007635,0.29927520751953124,-1.3192051147460937,9.117119921875,30.130000000000003
2025-10-20T16:32:45.881999,-10.16030534351145,4.114503816793893,5.175572519083969,0.023942016601562498,-1.5083470458984374,9.5384994140625,29.988823529411768
2025-10-20T16:32:45.898851,-11.488549618320612,4.717557251908397,5.236641221374046,0.15083470458984374,-1.4700398193359374,9.502586389160156,29.988823529411768
2025-10-20T16:32:45.915700,-13.83206106870229,6.099236641221374,5.465648854961832,0.1292868896484375,-1.5370774658203123,9.770736975097655,29.941764705882356
2025-10-20T16:32:45.932543,-15.274809160305344,6.419847328244275,5.412213740458015,0.0526724365234375,-1.419761584472656,9.581595043945311,29.988823529411768
2025-10-20T16:32:45.949386,-15.030534351145038,6.038167938931298,5.076335877862595,0.13407529296874998,-1.5131354492187499,9.730035546875,29.988823529411768
2025-10-20T16:32:45.966231,-13.099236641221374,5.320610687022901,4.755725190839694,0.11013327636718749,-1.0821791503906248,9.576806640625,30.03588235294118
2025-10-20T16:32:45.983075,-11.412213740458014,5.221374045801527,4.229007633587786,0.055066638183593745,-0.5817910034179687,9.373299499511718,29.988823529411768
2025-10-20T16:32:45.999923,-11.511450381679388,4.595419847328245,3.786259541984733,0.016759411621093748,-0.06464344482421874,9.564835632324218,30.08294117647059
2025-10-20T16:32:46.016765,-13.900763358778626,3.786259541984733,3.3969465648854964,0.08379705810546874,0.1388636962890625,9.698910925292969,30.03588235294118
2025-10-20T16:32:46.033613,-16.885496183206108,3.6564885496183206,3.404580152671756,0.06943184814453125,0.0,9.689334118652344,30.177058823529414
2025-10-20T16:32:46.050454,-18.290076335877863,3.6259541984732824,3.0229007633587788,-0.00239420166015625,-0.19632453613281248,9.536105212402344,29.988823529411768
2025-10-20T16:32:46.067304,-18.022900763358777,3.4580152671755724,2.816793893129771,-0.009576806640625,-0.48123453369140623,9.255983618164063,29.988823529411768
2025-10-20T16:32:46.084147,-15.816793893129772,3.3282442748091605,2.366412213740458,-0.11731588134765625,-0.8475473876953125,9.169792358398437,30.03588235294118
2025-10-20T16:32:46.100991,-13.290076335877863,3.435114503816794,2.183206106870229,-0.2657563842773437,-1.2114660400390624,9.05965908203125,29.988823529411768
2025-10-20T16:32:46.117838,-10.145038167938932,3.2977099236641223,1.8702290076335877,-0.3447650390625,-1.446097802734375,8.947131604003905,29.941764705882356
2025-10-20T16:32:46.134685,-7.267175572519084,3.053435114503817,1.9618320610687023,-0.3495534423828125,-1.7525556152343749,8.954314208984375,30.08294117647059
2025-10-20T16:32:46.151531,-3.3282442748091605,3.114503816793893,1.8473282442748091,-0.23223756103515625,-2.2601263671875,8.793902697753905,30.08294117647059
2025-10-20T16:32:46.168376,2.9618320610687023,2.8625954198473282,1.7328244274809161,-0.055066638183593745,-2.693476867675781,8.734047656249999,30.03588235294118
