timestamp,gyro_x,gyro_y,gyro_z,acc_x,acc_y,acc_z,temp
2025-10-20T14:31:56.898737,3.801526717557252,-0.9236641221374046,2.9160305343511452,-0.05985504150390625,0.3232172241210937,9.267954626464844,29.377058823529413
2025-10-20T14:31:56.915840,3.6946564885496183,-0.8320610687022901,2.786259541984733,0.03591302490234375,0.22744915771484372,9.425971936035156,29.377058823529413
2025-10-20T14:31:56.932729,3.3435114503816794,-0.4580152671755725,2.854961832061069,0.08379705810546874,0.3495534423828125,9.323021264648437,29.424117647058825
2025-10-20T14:31:56.949574,2.7480916030534353,-0.31297709923664124,2.816793893129771,0.14604630126953125,0.40222587890625,9.466673364257812,29.377058823529413
2025-10-20T14:31:56.966434,1.4351145038167938,-0.366412213740458,2.900763358778626,0.11013327636718749,0.4285620971679687,9.528922607421874,29.330000000000002
2025-10-20T14:31:56.983284,0.2900763358778626,0.4122137404580153,2.984732824427481,-0.011971008300781249,0.4836287353515625,9.30147344970703,29.51823529411765
2025-10-20T14:31:57.000113,-0.3511450381679389,0.5038167938931297,2.7557251908396947,-0.00718260498046875,0.21787235107421873,9.387664709472656,29.377058823529413
2025-10-20T14:31:57.016950,-0.9847328244274809,0.0916030534351145,2.931297709923664,0.10773907470703124,0.2537853759765625,9.452308154296874,29.424117647058825
2025-10-20T14:31:57.033771,-1.4427480916030535,0.3282442748091603,2.717557251908397,-0.076614453125,0.05746083984375,9.421183532714844,29.424117647058825
2025-10-20T14:31:57.050585,-1.8244274809160306,0.21374045801526717,2.66412213740458,0.0383072265625,0.1484405029296875,9.418789331054686,29.377058823529413
2025-10-20T14:31:57.067396,-2.0763358778625953,-0.15267175572519084,2.519083969465649,0.06464344482421874,-0.12449848632812499,9.423577734375,29.471176470588237
2025-10-20T14:31:57.084211,-1.916030534351145,0.20610687022900764,2.549618320610687,-0.0909796630859375,-0.21787235107421873,9.433154541015625,29.377058823529413
2025-10-20T14:31:57.101059,-1.4885496183206106,-0.11450381679389313,2.6106870229007635,0.0,-0.3136404174804687,9.325415466308593,29.424117647058825
2025-10-20T14:31:57.117931,-0.6564885496183206,0.1297709923664122,2.5267175572519083,-0.047884033203124995,-0.33039982910156246,9.188945971679686,29.377058823529413
2025-10-20T14:31:57.134796,0.4122137404580153,0.3969465648854962,2.900763358778626,-0.04548983154296875,-0.622492431640625,9.145850341796875,29.377058823529413
2025-10-20T14:31:57.151657,1.6412213740458015,0.35877862595419846,3.3282442748091605,0.07422025146484375,-0.4740519287109375,9.315838659667968,29.424117647058825
2025-10-20T14:31:57.168517,2.4427480916030535,0.5648854961832062,3.5419847328244276,-0.1292868896484375,-0.5746083984375,9.234435803222656,29.471176470588237
2025-10-20T14:31:57.185366,3.3053435114503817,0.48854961832061067,3.7404580152671754,0.07422025146484375,-0.3064578125,9.387664709472656,29.330000000000002
2025-10-20T14:31:57.202228,4.549618320610687,0.5114503816793893,1.9694656488549618,0.031124621582031248,-0.181959326171875,9.119514123535156,29.424117647058825
2025-10-20T14:31:57.219081,6.0458015267175576,-0.16030534351145037,3.969465648854962,0.05027823486328125,-0.0909796630859375,9.191340173339842,29.377058823529413
2025-10-20T14:31:57.236240,7.221374045801527,-0.3816793893129771,4.374045801526718,0.07900865478515624,0.12210428466796874,9.172186560058593,29.330000000000002
2025-10-20T14:31:57.253116,8.587786259541986,-0.8015267175572519,4.374045801526718,0.3136404174804687,0.08379705810546874,9.22485899658203,29.377058823529413
2025-10-20T14:31:57.269966,8.977099236641221,-1.1221374045801527,4.748091603053435,0.35194764404296874,0.3758896606445312,9.193734375,29.330000000000002
2025-10-20T14:31:57.287214,9.366412213740459,-1.213740458015267,4.801526717557252,0.316034619140625,0.3854664672851562,9.481038574218749,29.424117647058825
2025-10-20T14:31:57.304108,9.442748091603054,-1.4351145038167938,5.0534351145038165,0.33758243408203126,0.5746083984375,9.258377819824219,29.424117647058825
2025-10-20T14:31:57.326498,9.694656488549619,-1.4732824427480915,5.290076335877862,0.3950432739257812,0.7685387329101562,9.358934289550781,29.330000000000002
2025-10-20T14:31:57.349942,9.32824427480916,-1.1068702290076335,5.3893129770992365,0.30885201416015623,0.612915625,9.469067565917967,29.330000000000002
2025-10-20T14:31:57.366862,8.297709923664122,-0.8396946564885496,5.366412213740458,0.45010991210937495,0.737414111328125,9.318232861328125,29.377058823529413
2025-10-20T14:31:57.388405,7.419847328244275,-0.8091603053435115,5.305343511450381,0.42377369384765623,0.8978256225585937,9.41639512939453,29.424117647058825
2025-10-20T14:31:57.411633,6.259541984732825,-0.3893129770992366,5.244274809160306,0.3950432739257812,0.7015010864257812,9.325415466308593,29.424117647058825
2025-10-20T14:31:57.428532,5.267175572519084,-0.25190839694656486,5.022900763358779,0.44053310546874996,0.9097966308593749,9.485826977539062,29.471176470588237
2025-10-20T14:31:57.449490,4.8396946564885495,-0.9236641221374046,4.755725190839694,0.40940848388671874,0.7757213378906249,9.399635717773437,29.377058823529413
2025-10-20T14:31:57.472502,4.175572519083969,-0.7251908396946565,4.366412213740458,0.2609679809570312,0.47165772705078124,9.09796630859375,29.330000000000002
2025-10-20T14:31:57.490366,4.267175572519084,-0.8854961832061069,3.931297709923664,0.21308394775390624,0.5410895751953124,9.30147344970703,29.424117647058825
2025-10-20T14:31:57.510266,4.961832061068702,-0.9847328244274809,3.0076335877862594,-0.277727392578125,0.44053310546874996,9.313444458007812,29.330000000000002
2025-10-20T14:31:57.532956,5.183206106870229,-1.099236641221374,1.7328244274809161,-0.277727392578125,0.411802685546875,9.129090930175781,29.330000000000002
2025-10-20T14:31:57.551997,5.435114503816794,-1.2748091603053435,1.0687022900763359,0.11013327636718749,0.469263525390625,9.440337145996093,29.377058823529413
2025-10-20T14:31:57.570623,5.1679389312977095,-1.0076335877862594,1.1908396946564885,-0.24181436767578124,0.3711012573242187,9.332598071289063,29.424117647058825
2025-10-20T14:31:57.592970,5.030534351145038,-1.2290076335877862,0.7251908396946565,-0.3064578125,0.3806780639648437,9.117119921875,29.330000000000002
2025-10-20T14:31:57.612991,5.7251908396946565,-1.2366412213740459,0.13740458015267176,-0.28969840087890625,0.4165910888671875,9.176974963378905,29.28294117647059
2025-10-20T14:31:57.630547,6.99236641221374,-0.9618320610687023,-0.20610687022900764,-0.26336218261718747,0.3136404174804687,9.138667736816405,29.424117647058825
2025-10-20T14:31:57.652448,8.030534351145038,-0.6793893129770993,-0.25190839694656486,-0.13407529296874998,0.5219359619140624,9.562441430664062,29.377058823529413
2025-10-20T14:31:57.673618,8.007633587786259,-1.2213740458015268,-0.24427480916030533,0.13168109130859373,0.679953271484375,9.260772021484375,29.377058823529413
2025-10-20T14:31:57.690512,7.687022900763359,-1.213740458015267,0.061068702290076333,-0.06464344482421874,0.8954314208984374,9.435548742675781,29.330000000000002
2025-10-20T14:31:57.712352,7.7251908396946565,-1.2366412213740459,0.2900763358778626,0.06464344482421874,0.7757213378906249,9.739612353515625,29.377058823529413
2025-10-20T14:31:57.734797,6.770992366412214,-1.7938931297709924,1.0381679389312977,0.15083470458984374,1.0295067138671874,10.046070166015625,29.471176470588237
2025-10-20T14:31:57.751691,4.801526717557252,-1.3587786259541985,1.5725190839694656,0.16280571289062498,1.1180921752929687,9.188945971679686,29.424117647058825
2025-10-20T14:31:57.773921,2.877862595419847,-2.4656488549618323,1.8854961832061068,0.5506663818359374,0.7206546997070312,9.564835632324218,29.330000000000002
2025-10-20T14:31:57.797181,3.7557251908396947,-0.16793893129770993,2.435114503816794,0.12449848632812499,0.7134720947265625,9.215282189941405,29.377058823529413
2025-10-20T14:31:57.814080,1.450381679389313,0.21374045801526717,2.183206106870229,0.21787235107421873,0.5051765502929687,9.011775048828124,29.424117647058825
2025-10-20T14:31:57.835400,3.7709923664122136,-0.7251908396946565,2.5419847328244276,0.46208092041015625,0.5506663818359374,9.370905297851563,29.377058823529413
2025-10-20T14:31:57.859084,2.015267175572519,0.6793893129770993,0.022900763358778626,0.26336218261718747,1.0223241088867188,9.0788126953125,29.28294117647059
2025-10-20T14:31:57.876448,2.1603053435114505,0.7404580152671756,0.061068702290076333,0.23223756103515625,0.718260498046875,9.478644372558593,29.424117647058825
2025-10-20T14:31:57.897622,2.8396946564885495,1.2671755725190839,1.633587786259542,0.296881005859375,0.6631938598632812,9.205705383300781,29.377058823529413
2025-10-20T14:31:57.920930,4.183206106870229,0.549618320610687,1.213740458015267,0.009576806640625,0.6464344482421874,9.473855969238281,29.330000000000002
2025-10-20T14:31:57.938311,5.480916030534351,0.4732824427480916,1.0,-0.08858546142578125,0.5099649536132812,9.248801013183593,29.471176470588237
2025-10-20T14:31:57.961559,7.67175572519084,0.1450381679389313,0.5267175572519084,-0.26815058593749996,0.8930372192382812,8.95670841064453,29.330000000000002
2025-10-20T14:31:57.989714,5.190839694656488,-0.32061068702290074,0.3893129770992366,0.08858546142578125,0.9959878906249999,9.406818322753905,29.377058823529413
2025-10-20T14:31:58.006722,5.152671755725191,-1.8702290076335877,-0.061068702290076333,-0.2537853759765625,1.1085153686523437,9.212887988281249,29.424117647058825
2025-10-20T14:31:58.027294,4.755725190839694,-0.648854961832061,-0.6641221374045801,-0.0718260498046875,0.9193734375,9.114725720214842,29.28294117647059
2025-10-20T14:31:58.049860,6.854961832061068,-0.19083969465648856,-1.2061068702290076,0.11013327636718749,1.005564697265625,9.370905297851563,29.424117647058825
2025-10-20T14:31:58.067553,4.541984732824427,-0.4351145038167939,-1.5190839694656488,-0.24660277099609373,1.5059528442382812,9.5001921875,29.51823529411765
2025-10-20T14:31:58.087207,1.8549618320610688,-0.16030534351145037,-2.0381679389312977,0.239420166015625,1.4341267944335936,9.507374792480467,29.377058823529413
2025-10-20T14:31:58.109746,2.2442748091603053,-0.19083969465648856,-2.8931297709923665,0.28730419921875,1.2785036865234374,8.772354882812499,29.330000000000002
2025-10-20T14:31:58.128290,2.900763358778626,-0.366412213740458,-3.480916030534351,0.26336218261718747,1.1037269653320312,9.732429748535155,29.330000000000002
2025-10-20T14:31:58.147915,1.0,1.015267175572519,-3.8473282442748094,0.35194764404296874,2.1739351074218747,9.430760339355468,29.377058823529413
2025-10-20T14:31:58.170118,-4.343511450381679,0.4961832061068702,-2.015267175572519,0.040701428222656245,1.599326708984375,9.244012609863281,29.377058823529413
2025-10-20T14:31:58.189115,-5.694656488549619,0.1984732824427481,-4.885496183206107,0.07900865478515624,1.5298948608398437,9.536105212402344,29.424117647058825
2025-10-20T14:31:58.207641,-6.893129770992366,1.5038167938931297,-4.847328244274809,0.5339069702148437,1.6998831787109374,9.792284790039062,29.424117647058825
2025-10-20T14:31:58.229960,-12.007633587786259,-1.9236641221374047,-5.091603053435114,0.3232172241210937,0.47644613037109373,9.076418493652342,29.377058823529413
2025-10-20T14:31:58.250422,-9.709923664122137,-0.16793893129770993,-6.7251908396946565,-0.38307226562499996,1.637633935546875,8.769960681152343,29.471176470588237
2025-10-20T14:31:58.267487,-10.19083969465649,1.0458015267175573,-6.801526717557252,1.1180921752929687,1.5346832641601562,10.876858142089842,29.377058823529413
2025-10-20T14:31:58.289536,-15.206106870229007,1.7251908396946565,-7.076335877862595,0.13168109130859373,1.1420341918945311,9.87608184814453,29.330000000000002
2025-10-20T14:31:58.311103,-13.389312977099237,2.381679389312977,-7.977099236641221,0.30406361083984373,1.0414777221679687,9.380482104492186,29.424117647058825
2025-10-20T14:31:58.327940,-10.610687022900763,0.6564885496183206,-7.931297709923665,0.2154781494140625,0.6775590698242188,9.390058911132812,29.377058823529413
2025-10-20T14:31:58.349767,-11.908396946564885,0.11450381679389313,-8.396946564885496,-0.3064578125,0.2561795776367187,8.441955053710936,29.330000000000002
2025-10-20T14:31:58.372205,-7.9541984732824424,1.3282442748091603,-8.633587786259541,0.00718260498046875,0.3112462158203125,8.329427575683594,29.330000000000002
2025-10-20T14:31:58.389080,-7.702290076335878,0.48091603053435117,-8.84732824427481,-0.0718260498046875,1.0199299072265624,9.404424121093749,29.377058823529413
2025-10-20T14:31:58.410952,-7.648854961832061,0.5267175572519084,-9.022900763358779,-0.21308394775390624,1.4796166259765624,9.598354455566406,29.424117647058825
2025-10-20T14:31:58.434041,-5.717557251908397,-0.8396946564885496,-9.312977099236642,-0.105344873046875,0.9409212524414062,9.485826977539062,29.330000000000002
2025-10-20T14:31:58.450882,-3.763358778625954,-0.1984732824427481,-9.351145038167939,-0.023942016601562498,1.5298948608398437,9.196128576660156,29.424117647058825
2025-10-20T14:31:58.471729,-4.8320610687022905,-0.6717557251908397,-9.488549618320612,-0.13168109130859373,1.4006079711914061,9.629479077148437,29.377058823529413
2025-10-20T14:31:58.494541,-6.145038167938932,-0.35877862595419846,-9.511450381679388,0.28490999755859375,1.3766659545898436,9.191340173339842,29.330000000000002
2025-10-20T14:31:58.511787,-8.603053435114504,-0.2748091603053435,-11.67175572519084,0.06943184814453125,1.3910311645507811,9.770736975097655,29.424117647058825
2025-10-20T14:31:58.531891,-9.885496183206106,0.8549618320610687,-9.335877862595419,0.086191259765625,1.199495031738281,9.622296472167967,29.471176470588237
2025-10-20T14:31:58.554422,-15.587786259541986,0.8091603053435115,-9.053435114503817,0.033518823242187495,1.024718310546875,9.251195214843749,29.424117647058825
2025-10-20T14:31:58.572514,-18.870229007633586,0.8015267175572519,-8.755725190839694,0.3064578125,0.9313444458007812,9.756371765136718,29.424117647058825
2025-10-20T14:31:58.591690,-22.022900763358777,0.7251908396946565,-8.648854961832061,0.28012159423828126,0.239420166015625,9.105148913574219,29.424117647058825
2025-10-20T14:31:58.614160,-22.717557251908396,0.04580152671755725,-8.534351145038167,0.028730419921875,0.3758896606445312,9.567229833984374,29.424117647058825
2025-10-20T14:31:58.633543,-23.99236641221374,2.4732824427480917,-8.534351145038167,0.17477672119140625,0.2442085693359375,9.53131680908203,29.377058823529413
2025-10-20T14:31:58.651399,-24.84732824427481,1.7938931297709924,-8.610687022900763,0.2346317626953125,0.15322890625,9.244012609863281,29.424117647058825
2025-10-20T14:31:58.673495,-25.19083969465649,2.7938931297709924,-8.618320610687023,0.11252747802734374,0.0909796630859375,9.464279162597656,29.377058823529413
2025-10-20T14:31:58.694113,-25.14503816793893,2.1755725190839694,-8.091603053435115,0.181959326171875,0.16759411621093748,9.591171850585937,29.377058823529413
2025-10-20T14:31:58.710900,-25.938931297709924,3.236641221374046,-7.961832061068702,0.28012159423828126,0.0143652099609375,9.586383447265625,29.377058823529413
2025-10-20T14:31:58.732766,-27.15267175572519,3.633587786259542,-7.931297709923665,0.0526724365234375,0.19632453613281248,9.366116894531249,29.424117647058825
2025-10-20T14:31:58.754628,-28.87786259541985,2.931297709923664,-7.061068702290076,-0.105344873046875,0.7230489013671875,9.797073193359374,29.377058823529413
2025-10-20T14:31:58.771460,-30.46564885496183,3.1755725190839694,-6.748091603053435,0.09337386474609374,0.5793968017578125,8.951920007324219,29.424117647058825
2025-10-20T14:31:58.793349,-31.053435114503817,3.2519083969465647,-6.312977099236641,-0.23223756103515625,0.28012159423828126,9.296685046386719,29.471176470588237
2025-10-20T14:31:58.816077,-31.946564885496183,3.0076335877862594,-5.877862595419847,-0.13168109130859373,0.10773907470703124,9.792284790039062,29.424117647058825
2025-10-20T14:31:58.832929,-31.69465648854962,2.8244274809160306,-6.076335877862595,0.24899697265624998,-0.4285620971679687,9.849745629882811,29.424117647058825
2025-10-20T14:31:58.854244,-31.0,2.816793893129771,-5.702290076335878,0.13168109130859373,-0.622492431640625,9.483432775878907,29.377058823529413
2025-10-20T14:31:58.876983,-29.213740458015266,2.5114503816793894,-5.633587786259542,-0.00718260498046875,-1.1659762084960936,8.590395556640624,29.424117647058825
2025-10-20T14:31:58.896152,-25.022900763358777,0.04580152671755725,-5.595419847328245,0.1149216796875,-1.024718310546875,9.160215551757812,29.377058823529413
2025-10-20T14:31:58.915345,-25.045801526717558,2.595419847328244,-5.732824427480916,0.37828386230468747,-1.0223241088867188,8.808267907714843,29.471176470588237
2025-10-20T14:31:58.937653,-20.46564885496183,1.748091603053435,-5.793893129770993,-0.11252747802734374,-0.7398083129882812,8.813056311035156,29.377058823529413
2025-10-20T14:31:58.956639,-17.450381679389313,2.8244274809160306,-3.9389312977099236,-0.15083470458984374,-1.1444283935546875,8.82263311767578,29.377058823529413
2025-10-20T14:31:58.974959,-15.82442748091603,0.6412213740458015,-6.1603053435114505,0.32561142578124996,-0.5674257934570313,8.846575134277343,29.424117647058825
2025-10-20T14:31:58.997201,-15.702290076335878,1.1145038167938932,-6.106870229007634,0.354341845703125,-0.5243301635742187,9.153032946777342,29.424117647058825
2025-10-20T14:31:59.017480,-15.98473282442748,0.16030534351145037,-6.030534351145038,0.16519991455078123,-0.16998831787109375,9.014169250488282,29.330000000000002
2025-10-20T14:31:59.034432,-18.14503816793893,1.9312977099236641,-5.6183206106870225,0.29448680419921874,-0.45489831542968745,9.042899670410156,29.330000000000002
2025-10-20T14:31:59.056286,-19.938931297709924,0.6106870229007634,-5.5038167938931295,0.4644751220703125,-0.7637503295898437,9.1554271484375,29.28294117647059
2025-10-20T14:31:59.077893,-21.259541984732824,0.6412213740458015,-5.221374045801527,0.35673604736328124,-1.0558429321289062,9.277531433105468,29.377058823529413
2025-10-20T14:31:59.094699,-20.908396946564885,0.2748091603053435,-5.030534351145038,0.3711012573242187,-1.3144167114257812,9.203311181640624,29.28294117647059
2025-10-20T14:31:59.116708,-21.229007633587788,0.9618320610687023,-5.1603053435114505,0.603338818359375,-1.3814543579101561,8.808267907714843,29.471176470588237
2025-10-20T14:31:59.139561,-15.86259541984733,2.7709923664122136,-5.206106870229007,0.2609679809570312,-2.001552587890625,8.875305554199219,29.471176470588237
2025-10-20T14:31:59.156370,-11.274809160305344,4.145038167938932,-5.4961832061068705,-0.2059013427734375,-2.2266075439453124,9.153032946777342,29.471176470588237
2025-10-20T14:31:59.177726,-6.488549618320611,3.6259541984732824,-5.66412213740458,-0.1197100830078125,-2.0063409912109376,8.317456567382813,29.330000000000002
2025-10-20T14:31:59.200611,-0.40458015267175573,5.854961832061068,-5.580152671755725,-0.2753331909179687,-1.6998831787109374,8.214505895996094,29.424117647058825
2025-10-20T14:31:59.217436,7.793893129770993,1.4351145038167938,-5.358778625954199,-0.3758896606445312,-1.7453730102539062,8.95670841064453,29.51823529411765
2025-10-20T14:31:59.237870,10.717557251908397,1.916030534351145,-5.282442748091603,-0.6248866333007812,-1.5801730957031248,8.434772448730468,29.424117647058825
2025-10-20T14:31:59.260533,13.587786259541986,0.6793893129770993,-5.206106870229007,-0.1388636962890625,-1.446097802734375,8.279149340820313,29.424117647058825
2025-10-20T14:31:59.278196,13.83206106870229,-2.7557251908396947,-4.977099236641221,-0.19393033447265623,-0.8571241943359375,10.225635290527343,29.377058823529413
2025-10-20T14:31:59.297747,15.725190839694656,-0.46564885496183206,-3.931297709923664,-0.07900865478515624,-0.21068974609375,10.383652600097655,29.471176470588237
2025-10-20T14:31:59.320397,15.0,-4.00763358778626,-3.9770992366412212,-0.5626373901367188,-0.09576806640624999,10.27830772705078,29.471176470588237
2025-10-20T14:31:59.339345,14.526717557251908,-3.435114503816794,-6.641221374045801,-0.33039982910156246,-0.8212111694335937,9.524134204101562,29.377058823529413
2025-10-20T14:31:59.357608,10.099236641221374,-0.22137404580152673,-7.099236641221374,-0.201112939453125,-0.6775590698242188,9.603142858886718,29.377058823529413
2025-10-20T14:31:59.379874,6.679389312977099,-0.6030534351145038,-7.67175572519084,-0.4070142822265625,-0.9959878906249999,10.16338604736328,29.377058823529413
2025-10-20T14:31:59.400107,4.206106870229007,0.6030534351145038,-8.053435114503817,-0.47644613037109373,-1.3575123413085937,9.536105212402344,29.377058823529413
2025-10-20T14:31:59.417228,1.717557251908397,0.5572519083969466,-7.977099236641221,-0.031124621582031248,-1.6711527587890624,9.65342109375,29.424117647058825
2025-10-20T14:31:59.439141,2.648854961832061,0.4351145038167939,-8.51908396946565,0.1005564697265625,-1.7214309936523438,8.863334545898438,29.51823529411765
2025-10-20T14:31:59.460598,4.091603053435114,0.16030534351145037,-8.625954198473282,0.28730419921875,-1.9704279663085937,9.30147344970703,29.330000000000002
2025-10-20T14:31:59.477474,4.625954198473282,-1.8473282442748091,-8.145038167938932,-0.11013327636718749,-1.7908628417968748,9.445125549316407,29.377058823529413
2025-10-20T14:31:59.499305,4.9465648854961835,1.297709923664122,-7.862595419847328,1.177947216796875,-1.5610194824218748,10.194510668945313,29.424117647058825
2025-10-20T14:31:59.522086,3.6259541984732824,-0.7480916030534351,-6.99236641221374,-0.9624690673828125,-1.6615759521484375,9.976638317871092,29.377058823529413
2025-10-20T14:31:59.539793,3.2595419847328246,-1.3587786259541985,-6.511450381679389,-0.4908113403320312,-1.879448303222656,9.655815295410155,29.330000000000002
2025-10-20T14:31:59.560415,-0.15267175572519084,-1.8854961832061068,-6.358778625954199,0.3495534423828125,-0.86191259765625,9.354145886230468,29.471176470588237
2025-10-20T14:31:59.583127,-5.0458015267175576,1.2748091603053435,-5.396946564885496,0.5578489868164063,-0.28969840087890625,10.194510668945313,29.377058823529413
2025-10-20T14:31:59.600401,-16.50381679389313,2.3893129770992365,-3.9618320610687023,0.814028564453125,-0.08858546142578125,9.90241806640625,29.330000000000002
2025-10-20T14:31:59.620593,-26.99236641221374,3.7099236641221376,-3.3053435114503817,0.6919242797851562,0.033518823242187495,9.904812268066406,29.377058823529413
2025-10-20T14:31:59.643194,-37.0,5.022900763358779,-2.068702290076336,0.7876923461914062,-0.45010991210937495,10.462661254882812,29.377058823529413
2025-10-20T14:31:59.660955,-44.770992366412216,4.7251908396946565,-1.8854961832061068,0.3136404174804687,-0.928950244140625,9.885658654785155,29.471176470588237
2025-10-20T14:31:59.680804,-46.961832061068705,7.809160305343512,-2.114503816793893,0.2154781494140625,-1.3263877197265623,9.33978067626953,29.377058823529413
2025-10-20T14:31:59.703288,-50.36641221374046,7.7251908396946565,-2.572519083969466,0.2537853759765625,-1.448492004394531,8.88009395751953,29.330000000000002
2025-10-20T14:31:59.721573,-48.66412213740458,5.595419847328245,-2.9618320610687023,0.4213794921875,-1.668758557128906,8.904035974121093,29.330000000000002
2025-10-20T14:31:59.740717,-44.083969465648856,5.7251908396946565,-3.450381679389313,-0.22744915771484372,-1.6519991455078125,8.602366564941406,29.377058823529413
2025-10-20T14:31:59.762954,-39.465648854961835,5.312977099236641,-4.00763358778626,-0.0383072265625,-1.707065783691406,8.415618835449218,29.424117647058825
2025-10-20T14:31:59.781974,-33.412213740458014,4.6183206106870225,-4.0,-0.1005564697265625,-1.5059528442382812,8.403647827148436,29.424117647058825
2025-10-20T14:31:59.800245,-27.786259541984734,4.778625954198473,-4.106870229007634,-0.3232172241210937,-1.8650830932617186,8.583212951660157,29.424117647058825
2025-10-20T14:31:59.822476,-23.0381679389313,3.0076335877862594,-4.267175572519084,-0.40222587890625,-2.0446482177734375,8.494627490234375,29.330000000000002
2025-10-20T14:31:59.842752,-16.778625954198475,1.2061068702290076,-4.297709923664122,-0.43574470214843747,-2.224213342285156,8.319850769042969,29.377058823529413
2025-10-20T14:31:59.859823,-12.442748091603054,0.6641221374045801,-4.366412213740458,-0.41898529052734373,-2.0087351928710935,8.358157995605469,29.471176470588237
2025-10-20T14:31:59.881740,-9.923664122137405,-0.16793893129770993,-4.473282442748092,-0.1292868896484375,-1.7334020019531249,8.978256225585938,29.471176470588237
2025-10-20T14:31:59.903340,-6.633587786259542,-0.549618320610687,-4.465648854961832,-0.4740519287109375,-1.7381904052734374,8.82263311767578,29.330000000000002
2025-10-20T14:31:59.920303,-2.572519083969466,-0.12213740458015267,-4.580152671755725,-0.26336218261718747,-1.915361328125,8.82263311767578,29.424117647058825
2025-10-20T14:31:59.942111,0.6183206106870229,-0.2366412213740458,-4.625954198473282,-0.34715924072265625,-1.9033903198242186,8.750807067871094,29.424117647058825
2025-10-20T14:31:59.964084,3.2290076335877864,0.32061068702290074,-4.3893129770992365,-0.354341845703125,-2.583343591308594,8.913612780761719,29.377058823529413
2025-10-20T14:31:59.980967,6.343511450381679,0.15267175572519084,-4.3816793893129775,-0.16998831787109375,-2.7964275390625,9.320627062988281,29.330000000000002
2025-10-20T14:32:00.005187,7.083969465648855,-0.7709923664122137,-4.068702290076335,-0.22266075439453123,-3.421314172363281,8.59278975830078,29.424117647058825
2025-10-20T14:32:00.027082,12.381679389312977,-0.24427480916030533,-3.6259541984732824,-0.47884033203125,-3.246537451171875,9.011775048828124,29.424117647058825
2025-10-20T14:32:00.043934,15.099236641221374,-1.8702290076335877,-3.3206106870229006,-0.11252747802734374,-3.5194764404296874,8.015787158203125,29.330000000000002
2025-10-20T14:32:00.065722,17.931297709923665,-1.6793893129770991,-3.114503816793893,-0.23223756103515625,-3.191470812988281,8.63109698486328,29.377058823529413
2025-10-20T14:32:00.088777,25.68702290076336,-0.9694656488549618,-3.1603053435114505,-0.21308394775390624,-2.492363928222656,9.478644372558593,29.424117647058825
2025-10-20T14:32:00.105609,29.64885496183206,-2.450381679389313,-3.0381679389312977,-0.28012159423828126,-2.7533319091796873,9.112331518554686,29.424117647058825
2025-10-20T14:32:00.127706,34.152671755725194,-2.3282442748091605,-3.030534351145038,-0.3399766357421875,-2.422932080078125,9.555258825683593,29.377058823529413
2025-10-20T14:32:00.151076,34.85496183206107,-2.954198473282443,-2.877862595419847,-0.9528922607421875,-2.437297290039062,8.609549169921875,29.377058823529413
2025-10-20T14:32:00.167902,37.00763358778626,-2.7480916030534353,-3.3435114503816794,-0.6512228515624999,-1.7405846069335937,9.5384994140625,29.377058823529413
2025-10-20T14:32:00.188318,31.610687022900763,-3.549618320610687,-3.0076335877862594,0.09337386474609374,-1.668758557128906,9.469067565917967,29.377058823529413
2025-10-20T14:32:00.210903,28.53435114503817,1.6793893129770991,-2.2061068702290076,-0.4261678955078125,-2.9759926635742184,10.766724865722656,29.330000000000002
2025-10-20T14:32:00.229026,10.526717557251908,0.13740458015267176,-1.1755725190839694,0.28012159423828126,-1.6424223388671875,10.462661254882812,29.377058823529413
2025-10-20T14:32:00.248918,1.8244274809160306,1.381679389312977,-0.3969465648854962,0.05746083984375,-0.5578489868164063,10.077194787597655,29.377058823529413
2025-10-20T14:32:00.271460,-7.412213740458015,-1.099236641221374,1.366412213740458,1.455674609375,-0.5243301635742187,10.984597216796875,29.471176470588237
2025-10-20T14:32:00.289559,-16.099236641221374,2.2290076335877864,1.297709923664122,0.6655880615234374,-1.7621324218749999,9.955090502929687,29.330000000000002
2025-10-20T14:32:00.308704,-21.625954198473284,3.5419847328244276,0.8244274809160306,0.3399766357421875,-1.1923124267578125,8.63827958984375,29.471176470588237
2025-10-20T14:32:00.331174,-20.66412213740458,2.786259541984733,0.42748091603053434,0.488417138671875,-1.9297265380859374,9.37808790283203,29.330000000000002
2025-10-20T14:32:00.350552,-24.595419847328245,2.8244274809160306,0.3282442748091603,0.7876923461914062,-1.7932570434570312,9.849745629882811,29.377058823529413
2025-10-20T14:32:00.368412,-27.946564885496183,4.488549618320611,-0.1984732824427481,0.25139117431640623,-2.020706201171875,9.062053283691405,29.330000000000002
2025-10-20T14:32:00.391601,-28.984732824427482,4.99236641221374,-0.48091603053435117,0.28012159423828126,-2.1906945190429687,8.853757739257812,29.424117647058825
2025-10-20T14:32:00.409733,-22.458015267175572,4.442748091603053,-0.7786259541984732,0.24660277099609373,-3.1747114013671873,7.848193041992187,29.377058823529413
2025-10-20T14:32:00.429301,-14.51908396946565,3.267175572519084,-1.900763358778626,-0.488417138671875,-1.7214309936523438,8.537723120117187,29.471176470588237
2025-10-20T14:32:00.452078,-9.854961832061068,1.1297709923664123,-2.5419847328244276,-0.6057330200195312,-0.36391865234375,9.430760339355468,29.424117647058825
2025-10-20T14:32:00.471064,-9.15267175572519,1.0305343511450382,-3.2290076335877864,0.05027823486328125,-1.0654197387695312,8.738836059570312,29.330000000000002
2025-10-20T14:32:00.489652,-6.061068702290076,0.7709923664122137,-3.7404580152671754,0.1197100830078125,-0.5793968017578125,9.160215551757812,29.377058823529413
2025-10-20T14:32:00.511993,-6.793893129770993,0.19083969465648856,-3.7022900763358777,0.05027823486328125,-1.149216796875,8.678981018066406,29.330000000000002
2025-10-20T14:32:00.532271,-7.679389312977099,-0.4580152671755725,-4.068702290076335,-0.1292868896484375,-1.0606313354492187,8.667010009765624,29.377058823529413
2025-10-20T14:32:00.549587,-10.801526717557252,0.7633587786259542,-4.221374045801527,0.12449848632812499,-1.1540052001953125,9.586383447265625,29.377058823529413
2025-10-20T14:32:00.571704,-13.900763358778626,0.8015267175572519,-4.183206106870229,0.13407529296874998,-1.1061211669921875,9.296685046386719,29.330000000000002
2025-10-20T14:32:00.592808,-15.374045801526718,0.37404580152671757,-4.366412213740458,0.15562310791015624,-1.7238251953125,8.875305554199219,29.377058823529413
2025-10-20T14:32:00.609607,-16.290076335877863,0.8244274809160306,-4.3893129770992365,0.06943184814453125,-1.8435352783203125,9.047688073730468,29.424117647058825
2025-10-20T14:32:00.631340,-15.694656488549619,2.3893129770992365,-3.984732824427481,0.0047884033203125,-1.66636435546875,9.210493786621093,29.424117647058825
2025-10-20T14:32:00.653220,-21.3206106870229,1.0229007633587786,-3.687022900763359,0.03591302490234375,-2.6001030029296874,9.227253198242186,29.377058823529413
2025-10-20T14:32:00.670047,-21.267175572519083,1.8396946564885497,-3.8702290076335877,0.4525041137695312,-2.157175695800781,8.827421520996094,29.424117647058825
2025-10-20T14:32:00.692082,-17.69465648854962,0.9465648854961832,-3.450381679389313,0.28730419921875,-2.4947581298828125,9.313444458007812,29.377058823529413
2025-10-20T14:32:00.715209,-19.236641221374047,1.3893129770992367,-3.3893129770992365,0.0909796630859375,-1.9847931762695312,8.588001354980468,29.330000000000002
2025-10-20T14:32:00.732037,-18.49618320610687,3.213740458015267,-3.3969465648854964,-0.06943184814453125,-1.898601916503906,9.02135185546875,29.424117647058825
2025-10-20T14:32:00.753167,-17.213740458015266,2.114503816793893,-3.6946564885496183,-0.3902548706054687,-2.4492682983398435,8.712499841308594,29.424117647058825
2025-10-20T14:32:00.775901,-12.16030534351145,3.572519083969466,-4.206106870229007,-0.9074024291992187,-2.499546533203125,8.506598498535157,29.424117647058825
2025-10-20T14:32:00.792726,-5.534351145038168,0.9007633587786259,-4.877862595419847,-0.8595183959960937,-2.7844565307617186,8.1594392578125,29.471176470588237
2025-10-20T14:32:00.813092,-2.2977099236641223,0.6717557251908397,-5.5038167938931295,-0.8451531860351562,-2.212242333984375,8.793902697753905,29.424117647058825
2025-10-20T14:32:00.835936,1.7709923664122138,0.648854961832061,-6.3893129770992365,-0.5123591552734374,-2.1787235107421874,8.801085302734375,29.377058823529413
2025-10-20T14:32:00.853713,5.221374045801527,0.6870229007633588,-6.9465648854961835,-0.7062894897460937,-2.346317626953125,8.576030346679687,29.28294117647059
2025-10-20T14:32:00.873494,9.053435114503817,-1.6030534351145038,-7.435114503816794,-0.6655880615234374,-2.3247698120117186,8.542511523437499,29.424117647058825
2025-10-20T14:32:00.900729,10.16793893129771,-1.5954198473282444,-7.67175572519084,-1.0007762939453124,-2.308010400390625,8.801085302734375,29.377058823529413
2025-10-20T14:32:00.927389,12.091603053435115,0.3435114503816794,-8.122137404580153,-0.948103857421875,-2.5809493896484375,8.793902697753905,29.471176470588237
2025-10-20T14:32:00.947766,16.427480916030536,-0.37404580152671757,-8.732824427480915,-0.6272808349609375,-2.8514941772460936,9.478644372558593,29.330000000000002
2025-10-20T14:32:00.970481,21.480916030534353,-1.5419847328244274,-8.648854961832061,-0.24899697265624998,-2.8802245971679685,9.445125549316407,29.424117647058825
2025-10-20T14:32:00.988173,22.603053435114504,-3.068702290076336,-8.404580152671755,-0.3495534423828125,-3.4644098022460934,9.425971936035156,29.51823529411765
2025-10-20T14:32:01.008141,29.022900763358777,-1.6030534351145038,-8.206106870229007,-0.354341845703125,-3.5434184570312497,9.457096557617186,29.330000000000002
2025-10-20T14:32:01.030739,32.404580152671755,-1.9236641221374047,-8.038167938931299,-0.7134720947265625,-3.7421371948242186,9.028534460449219,29.377058823529413
2025-10-20T14:32:01.048849,37.29007633587786,-2.7022900763358777,-8.01526717557252,-0.5339069702148437,-3.4332851806640625,8.84178673095703,29.330000000000002
2025-10-20T14:32:01.068301,43.274809160305345,-2.877862595419847,-7.938931297709924,-0.49799394531249996,-2.2864625854492187,9.09796630859375,29.424117647058825
2025-10-20T14:32:01.090552,49.465648854961835,-3.427480916030534,-7.419847328244275,-0.33758243408203126,-2.2960393920898436,9.241618408203124,29.424117647058825
2025-10-20T14:32:01.109078,47.70229007633588,-2.4427480916030535,-6.427480916030534,-0.20350714111328125,-1.9584569580078124,9.732429748535155,29.471176470588237
2025-10-20T14:32:01.128251,43.38931297709924,-1.5648854961832062,-5.9465648854961835,-0.5793968017578125,-1.1085153686523437,9.641450085449218,29.330000000000002
2025-10-20T14:32:01.150670,40.908396946564885,1.5725190839694656,-5.114503816793893,-0.3495534423828125,-3.134009973144531,9.866505041503906,29.424117647058825
2025-10-20T14:32:01.170014,27.0,-1.1603053435114503,-5.190839694656488,0.7493851196289062,0.3758896606445312,9.718064538574218,29.424117647058825
2025-10-20T14:32:01.187774,24.396946564885496,0.35877862595419846,-4.076335877862595,0.12689268798828124,0.09816226806640624,11.133037719726563,29.377058823529413
2025-10-20T14:32:01.209777,10.625954198473282,0.4122137404580153,-3.1603053435114505,0.33758243408203126,-0.00239420166015625,10.467449658203124,29.377058823529413
2025-10-20T14:32:01.230833,-4.099236641221374,2.1908396946564888,-2.2442748091603053,0.4644751220703125,-0.20829554443359374,10.63025537109375,29.424117647058825
2025-10-20T14:32:01.247666,-15.801526717557252,3.801526717557252,-1.8702290076335877,0.4860229370117187,-1.0199299072265624,9.634267480468749,29.377058823529413
2025-10-20T14:32:01.269305,-19.251908396946565,3.66412213740458,-2.6564885496183206,-0.040701428222656245,-0.9241618408203125,9.689334118652344,29.330000000000002
2025-10-20T14:32:01.291242,-22.64885496183206,4.0458015267175576,-3.519083969465649,-0.229843359375,-1.675941162109375,10.053252770996092,29.424117647058825
2025-10-20T14:32:01.308204,-26.862595419847327,5.0458015267175576,-4.396946564885496,-0.9145850341796874,-1.8243816650390623,9.718064538574218,29.424117647058825
2025-10-20T14:32:01.330175,-26.53435114503817,4.6183206106870225,-4.824427480916031,-0.19632453613281248,-1.7334020019531249,8.334215979003906,29.330000000000002
2025-10-20T14:32:01.353054,-21.366412213740457,3.854961832061069,-7.625954198473282,0.19393033447265623,-1.5753846923828123,8.619125976562499,29.471176470588237
2025-10-20T14:32:01.369899,-10.48091603053435,5.6183206106870225,-6.961832061068702,-0.33039982910156246,-1.6208745239257811,8.963891015625,29.330000000000002
2025-10-20T14:32:01.391526,-4.6183206106870225,1.381679389312977,-7.229007633587786,-0.679953271484375,-1.7908628417968748,7.9272016967773435,29.424117647058825
2025-10-20T14:32:01.414553,1.450381679389313,3.381679389312977,-7.786259541984733,-0.3758896606445312,-1.7597382202148437,8.36294639892578,29.424117647058825
2025-10-20T14:32:01.431341,4.244274809160306,0.5572519083969466,-7.717557251908397,-0.39983167724609375,-1.1563994018554686,8.78432589111328,29.330000000000002
2025-10-20T14:32:01.452005,6.511450381679389,-0.1450381679389313,-7.99236641221374,-0.105344873046875,-0.4836287353515625,9.176974963378905,29.424117647058825
2025-10-20T14:32:01.474635,9.755725190839694,1.6641221374045803,-6.9465648854961835,0.4955997436523437,-0.8810662109374999,9.696516723632811,29.424117647058825
2025-10-20T14:32:01.491869,1.1908396946564885,-1.9465648854961832,-5.580152671755725,0.5339069702148437,-0.584185205078125,9.069235888671875,29.330000000000002
2025-10-20T14:32:01.511732,-6.030534351145038,0.48091603053435117,-3.7709923664122136,0.7757213378906249,-0.7829039428710937,9.854534033203125,29.377058823529413
2025-10-20T14:32:01.534428,-14.65648854961832,2.33587786259542,-2.8931297709923665,0.36391865234375,-0.5793968017578125,9.406818322753905,29.471176470588237
2025-10-20T14:32:01.552930,-23.96946564885496,0.3282442748091603,-1.2900763358778626,1.2976572998046874,0.565031591796875,9.440337145996093,29.377058823529413
2025-10-20T14:32:01.571567,-28.82442748091603,1.984732824427481,-0.5190839694656488,1.120486376953125,0.0143652099609375,10.378864196777343,29.51823529411765
2025-10-20T14:32:01.593744,-32.656488549618324,2.2213740458015265,0.20610687022900764,1.4508862060546874,-0.5386953735351562,9.581595043945311,29.424117647058825
2025-10-20T14:32:01.613507,-37.81679389312977,3.2442748091603053,1.2595419847328244,0.8882488159179687,-1.3646949462890625,10.072406384277343,29.424117647058825
2025-10-20T14:32:01.630851,-38.534351145038165,5.625954198473282,1.6870229007633588,0.39264907226562495,-1.8650830932617186,8.552088330078124,29.377058823529413
2025-10-20T14:32:01.652734,-36.62595419847328,4.320610687022901,1.4961832061068703,-0.11013327636718749,-2.5713725830078125,8.66940421142578,29.330000000000002
2025-10-20T14:32:01.673771,-26.68702290076336,4.519083969465649,0.6793893129770993,0.32082302246093747,-2.3774422485351563,8.075642199707032,29.471176470588237
2025-10-20T14:32:01.690599,-18.045801526717558,4.137404580152672,-0.1984732824427481,-0.086191259765625,-2.2553379638671873,8.358157995605469,29.377058823529413
2025-10-20T14:32:01.712515,-12.251908396946565,2.33587786259542,-0.7022900763358778,-0.0143652099609375,-2.27927998046875,8.568847741699217,29.28294117647059
2025-10-20T14:32:01.734809,-2.7938931297709924,1.7251908396946565,-1.5190839694656488,-0.6177040283203125,-1.886630908203125,7.378929516601562,29.424117647058825
2025-10-20T14:32:01.751644,8.442748091603054,-1.1450381679389312,-3.1908396946564888,-0.9433154541015625,-2.2361843505859373,7.958326318359375,29.330000000000002
2025-10-20T14:32:01.773256,20.717557251908396,-2.564885496183206,-4.534351145038168,-0.9361328491210937,-2.1643583007812497,7.536946826171874,29.377058823529413
2025-10-20T14:32:01.796137,32.267175572519086,-5.206106870229007,-5.99236641221374,-0.5770026000976562,-1.9584569580078124,8.054094384765625,29.471176470588237
2025-10-20T14:32:01.812967,43.213740458015266,-7.793893129770993,-6.931297709923665,-0.2561795776367187,-1.350329736328125,9.0788126953125,29.424117647058825
2025-10-20T14:32:01.833628,49.38931297709924,-7.801526717557252,-7.770992366412214,-0.9576806640625,-2.35589443359375,8.36294639892578,29.377058823529413
2025-10-20T14:32:01.856461,48.87786259541985,-7.526717557251908,-7.6183206106870225,-0.5386953735351562,-1.4173673828125,8.310273962402343,29.330000000000002
2025-10-20T14:32:01.874558,55.14503816793893,-5.251908396946565,-8.038167938931299,-0.5961562133789062,-1.446097802734375,9.0788126953125,29.377058823529413
2025-10-20T14:32:01.894145,59.61832061068702,-6.519083969465649,-8.702290076335878,0.4381389038085937,-1.4796166259765624,10.12507882080078,29.424117647058825
2025-10-20T14:32:01.916320,58.12213740458015,-7.625954198473282,-7.557251908396947,0.4860229370117187,-2.262520568847656,9.964667309570311,29.424117647058825
2025-10-20T14:32:01.936201,55.6793893129771,-5.893129770992366,-6.854961832061068,0.13168109130859373,-0.5770026000976562,9.356540087890625,29.28294117647059
2025-10-20T14:32:01.953865,51.36641221374046,-6.572519083969466,-6.480916030534351,0.9648632690429687,-0.5363011718749999,9.866505041503906,29.51823529411765
2025-10-20T14:32:01.975502,49.25190839694657,-2.2977099236641223,-6.129770992366412,-0.277727392578125,-0.9457096557617187,10.963049401855468,29.424117647058825
2025-10-20T14:32:01.996154,43.80916030534351,-4.633587786259542,-6.175572519083969,0.12210428466796874,-0.584185205078125,10.256759912109374,29.377058823529413
2025-10-20T14:32:02.013180,38.98473282442748,-4.549618320610687,-6.282442748091603,0.3950432739257812,-0.10295067138671875,10.237606298828124,29.377058823529413
2025-10-20T14:32:02.035271,31.16030534351145,-2.687022900763359,-6.083969465648855,0.39264907226562495,0.45010991210937495,10.216058483886718,29.51823529411765
2025-10-20T14:32:02.057237,21.748091603053435,-1.4885496183206106,-6.351145038167939,-0.076614453125,0.3806780639648437,10.134655627441406,29.424117647058825
2025-10-20T14:32:02.074048,12.305343511450381,0.648854961832061,-6.473282442748092,-0.2609679809570312,1.2018892333984375,10.151415039062499,29.377058823529413
2025-10-20T14:32:02.095776,5.648854961832061,2.2748091603053435,-6.6106870229007635,-0.4381389038085937,1.1755530151367186,10.172962854003906,29.377058823529413
2025-10-20T14:32:02.118928,-6.8320610687022905,2.1068702290076335,-6.900763358778626,-0.22505495605468748,1.675941162109375,10.098742602539062,29.330000000000002
2025-10-20T14:32:02.135746,-16.14503816793893,4.656488549618321,-6.687022900763359,0.1484405029296875,1.3168109130859373,10.340556970214843,29.377058823529413
2025-10-20T14:32:02.156630,-23.0381679389313,3.954198473282443,-6.427480916030534,-0.0526724365234375,1.2785036865234374,10.915165368652342,29.424117647058825
2025-10-20T14:32:02.179336,-29.931297709923665,4.67175572519084,-7.755725190839694,0.06703764648437499,0.33518823242187495,9.160215551757812,29.424117647058825
2025-10-20T14:32:02.196578,-32.55725190839695,2.5572519083969465,-5.183206106870229,0.9504980590820312,0.016759411621093748,10.299855541992187,29.424117647058825
2025-10-20T14:32:02.216422,-35.62595419847328,4.236641221374046,-5.1603053435114505,0.5123591552734374,-1.3575123413085937,8.930372192382812,29.471176470588237
2025-10-20T14:32:02.238745,-34.49618320610687,5.717557251908397,-5.076335877862595,0.3806780639648437,-0.9217676391601562,9.011775048828124,29.424117647058825
2025-10-20T14:32:02.256857,-28.419847328244273,3.2977099236641223,-4.732824427480916,0.20350714111328125,-1.4006079711914061,8.904035974121093,29.471176470588237
2025-10-20T14:32:02.275975,-22.946564885496183,3.9160305343511452,-4.572519083969466,0.16759411621093748,-1.2569558715820313,8.836998327636719,29.424117647058825
2025-10-20T14:32:02.298217,-16.282442748091604,3.4122137404580153,-4.1679389312977095,0.05746083984375,-1.3263877197265623,8.765172277832031,29.330000000000002
2025-10-20T14:32:02.317556,-6.312977099236641,2.648854961832061,-4.022900763358779,-0.16998831787109375,-1.3096283081054687,8.52335791015625,29.471176470588237
2025-10-20T14:32:02.335310,3.7022900763358777,2.0381679389312977,-3.9618320610687023,-0.38786066894531246,-1.1061211669921875,8.298302954101562,29.471176470588237
2025-10-20T14:32:02.357222,12.908396946564885,1.1984732824427482,-4.190839694656488,-0.3327940307617187,-1.216254443359375,8.547299926757812,29.471176470588237
2025-10-20T14:32:02.377821,19.709923664122137,0.549618320610687,-4.145038167938932,-0.2154781494140625,-0.16280571289062498,8.786720092773438,29.424117647058825
2025-10-20T14:32:02.394634,28.114503816793892,-1.1908396946564885,-4.0458015267175576,-0.26336218261718747,0.33758243408203126,8.415618835449218,29.330000000000002
2025-10-20T14:32:02.416287,32.57251908396947,-2.4122137404580153,-3.7938931297709924,-0.239420166015625,-0.13646949462890623,8.44674345703125,29.51823529411765
2025-10-20T14:32:02.438328,34.89312977099237,-3.4656488549618323,-3.0916030534351147,0.14125789794921875,0.33518823242187495,8.667010009765624,29.377058823529413
2025-10-20T14:32:02.455149,34.3206106870229,-4.061068702290076,-2.6793893129770994,0.2657563842773437,0.584185205078125,9.212887988281249,29.377058823529413
2025-10-20T14:32:02.476867,32.404580152671755,-7.694656488549619,-2.213740458015267,0.8259995727539062,1.0486603271484374,9.167398156738281,29.377058823529413
2025-10-20T14:32:02.499996,27.435114503816795,-5.305343511450381,-1.916030534351145,0.8930372192382812,1.0702081420898437,9.37808790283203,29.377058823529413
2025-10-20T14:32:02.516815,19.633587786259543,-3.984732824427481,-1.282442748091603,0.39264907226562495,1.0749965454101562,9.409212524414063,29.471176470588237
2025-10-20T14:32:02.537680,12.335877862595419,-3.900763358778626,-0.9312977099236641,0.8188169677734375,1.0127473022460938,9.370905297851563,29.424117647058825
2025-10-20T14:32:02.560626,4.938931297709924,-1.4274809160305344,-0.061068702290076333,0.45489831542968745,0.9337386474609375,9.447519750976562,29.330000000000002
2025-10-20T14:32:02.578289,0.46564885496183206,-0.030534351145038167,0.16030534351145037,0.4165910888671875,0.8834604125976562,9.823409411621093,29.471176470588237
2025-10-20T14:32:02.597765,-2.7099236641221376,-0.45038167938931295,-0.48854961832061067,0.43574470214843747,0.48123453369140623,8.86812294921875,29.471176470588237
2025-10-20T14:32:02.621126,-2.030534351145038,-0.3893129770992366,-1.1145038167938932,-0.105344873046875,0.8714894042968749,9.081206896972656,29.424117647058825
2025-10-20T14:32:02.640095,-1.916030534351145,0.48854961832061067,-2.16793893129771,-0.055066638183593745,-0.01915361328125,10.000580334472655,29.377058823529413
2025-10-20T14:32:02.658412,-3.885496183206107,-0.05343511450381679,-2.3969465648854964,0.15083470458984374,0.3112462158203125,8.908824377441405,29.377058823529413
2025-10-20T14:32:02.680665,-1.6793893129770991,-0.5190839694656488,-2.8091603053435112,-0.6296750366210937,0.33758243408203126,9.018957653808593,29.424117647058825
2025-10-20T14:32:02.700907,0.183206106870229,-0.8931297709923665,-3.5114503816793894,-0.16998831787109375,0.30406361083984373,9.13627353515625,29.424117647058825
2025-10-20T14:32:02.717865,4.625954198473282,-0.9923664122137404,-3.954198473282443,-0.3136404174804687,0.2059013427734375,9.375693701171874,29.377058823529413
2025-10-20T14:32:02.739734,6.595419847328245,-1.549618320610687,-4.5038167938931295,-0.105344873046875,0.5339069702148437,9.591171850585937,29.377058823529413
2025-10-20T14:32:02.761261,6.488549618320611,-2.1603053435114505,-4.32824427480916,-0.39983167724609375,0.4261678955078125,9.509768994140625,29.471176470588237
2025-10-20T14:32:02.778065,5.709923664122138,-1.6488549618320612,-4.534351145038168,-0.1292868896484375,0.8810662109374999,9.545682019042967,29.424117647058825
2025-10-20T14:32:02.800090,6.183206106870229,-3.931297709923664,-4.854961832061068,0.1005564697265625,1.216254443359375,9.445125549316407,29.424117647058825
2025-10-20T14:32:02.822909,3.9923664122137406,-2.885496183206107,-4.793893129770993,-0.45968671875,1.3311761230468748,8.896853369140624,29.377058823529413
2025-10-20T14:32:02.839719,-1.8473282442748091,0.10687022900763359,-4.526717557251908,0.16519991455078123,1.13006318359375,10.268730920410155,29.51823529411765
2025-10-20T14:32:02.861153,-4.816793893129771,0.366412213740458,-4.549618320610687,0.7278373046875,0.9864110839843749,9.80665,29.330000000000002
2025-10-20T14:32:02.884089,-9.816793893129772,1.7786259541984732,-4.572519083969466,0.8379705810546875,0.6368576416015624,9.0788126953125,29.424117647058825
2025-10-20T14:32:02.901042,-11.778625954198473,2.9160305343511452,-4.549618320610687,0.5793968017578125,0.7350199096679687,9.76116016845703,29.377058823529413
2025-10-20T14:32:02.921588,-14.65648854961832,1.9770992366412214,-4.541984732824427,0.7541735229492187,0.6847416748046875,9.658209497070311,29.424117647058825
2025-10-20T14:32:02.944631,-17.198473282442748,2.2977099236641223,-4.603053435114504,-0.15322890625,0.20829554443359374,9.904812268066406,29.330000000000002
2025-10-20T14:32:02.962828,-20.061068702290076,3.0916030534351147,-4.3893129770992365,0.8475473876953125,-0.1197100830078125,8.695740429687499,29.424117647058825
2025-10-20T14:32:02.982037,-14.969465648854962,1.5877862595419847,-4.702290076335878,-0.21068974609375,-0.5315127685546874,9.5384994140625,29.330000000000002
2025-10-20T14:32:03.004729,-12.587786259541986,5.183206106870229,-4.9541984732824424,0.11013327636718749,0.0526724365234375,8.959102612304687,29.424117647058825
2025-10-20T14:32:03.023835,-9.877862595419847,-0.40458015267175573,-5.0458015267175576,0.22026655273437498,0.040701428222656245,9.145850341796875,29.377058823529413
2025-10-20T14:32:03.042395,-7.809160305343512,2.0,-5.67175572519084,-0.27293898925781246,0.03591302490234375,8.94473740234375,29.424117647058825
2025-10-20T14:32:03.064875,-0.8091603053435115,1.4045801526717556,-5.641221374045801,-0.28730419921875,-0.12689268798828124,8.954314208984375,29.424117647058825
2025-10-20T14:32:03.084829,1.4427480916030535,0.4351145038167939,-5.358778625954199,0.1484405029296875,-0.1005564697265625,9.605537060546874,29.330000000000002
2025-10-20T14:32:03.102534,2.3587786259541983,1.8549618320610688,-5.213740458015267,0.16998831787109375,0.2059013427734375,8.585607153320312,29.330000000000002
2025-10-20T14:32:03.124593,4.145038167938932,-1.0381679389312977,-5.091603053435114,0.41419688720703124,-0.2705447875976562,9.117119921875,29.471176470588237
2025-10-20T14:32:03.145362,4.213740458015267,-0.7404580152671756,-4.900763358778626,0.1867477294921875,0.16280571289062498,8.738836059570312,29.377058823529413
2025-10-20T14:32:03.162279,4.068702290076335,0.48854961832061067,-4.893129770992366,0.3327940307617187,-0.23702596435546874,8.394071020507813,29.377058823529413
2025-10-20T14:32:03.184713,3.183206106870229,1.4580152671755726,-4.977099236641221,-0.047884033203124995,0.7326257080078125,10.084377392578125,29.424117647058825
2025-10-20T14:32:03.206742,-1.3282442748091603,0.8015267175572519,-4.8320610687022905,0.70868369140625,0.08858546142578125,9.0788126953125,29.377058823529413
2025-10-20T14:32:03.223659,-3.1068702290076335,-2.145038167938931,-4.465648854961832,0.6272808349609375,0.181959326171875,9.220070593261719,29.424117647058825
2025-10-20T14:32:03.245816,-6.229007633587786,0.13740458015267176,-4.244274809160306,0.16759411621093748,0.488417138671875,9.047688073730468,29.424117647058825
2025-10-20T14:32:03.269368,-10.732824427480915,0.5343511450381679,-3.9923664122137406,0.4525041137695312,0.3711012573242187,9.636661682128906,29.471176470588237
2025-10-20T14:32:03.286389,-18.763358778625953,1.16793893129771,-3.3740458015267176,-0.10773907470703124,0.6272808349609375,10.189722265624999,29.377058823529413
2025-10-20T14:32:03.307856,-25.091603053435115,-0.04580152671755725,-3.0839694656488548,-0.05746083984375,1.8746598999023436,9.05965908203125,29.424117647058825
2025-10-20T14:32:03.331001,-32.908396946564885,3.3893129770992365,-3.312977099236641,0.2705447875976562,1.4891934326171874,9.835380419921874,29.377058823529413
2025-10-20T14:32:03.347923,-39.37404580152672,3.900763358778626,-3.480916030534351,-0.34715924072265625,0.74699091796875,8.966285217285156,29.424117647058825
2025-10-20T14:32:03.368662,-43.80916030534351,1.6564885496183206,-3.732824427480916,0.1005564697265625,0.028730419921875,9.9215716796875,29.471176470588237
2025-10-20T14:32:03.391557,-48.51908396946565,3.3969465648854964,-3.954198473282443,0.0047884033203125,-0.009576806640625,8.815450512695312,29.471176470588237
2025-10-20T14:32:03.409334,-51.67175572519084,2.366412213740458,-4.312977099236641,-0.3184288208007812,-0.5530605834960938,9.411606726074218,29.471176470588237
2025-10-20T14:32:03.429402,-52.099236641221374,3.549618320610687,-5.0,-0.5027823486328125,-1.0366893188476562,8.954314208984375,29.424117647058825
2025-10-20T14:32:03.452138,-49.61832061068702,3.4732824427480917,-5.366412213740458,0.01915361328125,-0.19393033447265623,8.55448253173828,29.330000000000002
2025-10-20T14:32:03.470755,-46.17557251908397,2.366412213740458,-5.473282442748092,0.0383072265625,-0.6655880615234374,9.13627353515625,29.377058823529413
2025-10-20T14:32:03.489736,-43.656488549618324,3.6259541984732824,-5.290076335877862,-0.38307226562499996,-0.6440402465820312,8.717288244628906,29.471176470588237
2025-10-20T14:32:03.512437,-42.38931297709924,2.427480916030534,-5.343511450381679,-0.27293898925781246,-0.3447650390625,9.062053283691405,29.28294117647059
2025-10-20T14:32:03.531953,-37.85496183206107,4.061068702290076,-5.251908396946565,-0.44053310546874996,-0.6775590698242188,8.74601866455078,29.330000000000002
2025-10-20T14:32:03.550201,-33.229007633587784,3.2442748091603053,-5.320610687022901,-0.02633621826171875,-0.6967126831054687,8.815450512695312,29.424117647058825
2025-10-20T14:32:03.572335,-29.786259541984734,2.8473282442748094,-4.870229007633588,-0.1771709228515625,-1.0510545288085937,9.629479077148437,29.330000000000002
2025-10-20T14:32:03.593049,-28.900763358778626,2.381679389312977,-4.083969465648855,-0.29448680419921874,-1.1348515869140625,9.619902270507811,29.330000000000002
2025-10-20T14:32:03.609988,-26.389312977099237,2.198473282442748,-3.1374045801526718,-0.0718260498046875,-1.6256629272460936,9.188945971679686,29.471176470588237
2025-10-20T14:32:03.632116,-21.412213740458014,0.366412213740458,-2.618320610687023,0.06464344482421874,-1.9393033447265624,9.09796630859375,29.28294117647059
2025-10-20T14:32:03.653724,-14.946564885496183,1.717557251908397,-3.8702290076335877,-0.16280571289062498,-2.4349030883789062,8.671798413085938,29.330000000000002
2025-10-20T14:32:03.670720,-7.923664122137405,1.4885496183206106,-1.816793893129771,0.08858546142578125,-2.446874096679687,9.074024291992187,29.424117647058825
2025-10-20T14:32:03.692840,-4.740458015267175,2.1908396946564888,-1.5114503816793894,-0.13407529296874998,-2.8012159423828122,9.17458076171875,29.471176470588237
2025-10-20T14:32:03.714445,-0.6793893129770993,2.213740458015267,-1.450381679389313,-0.42377369384765623,-2.7724855224609373,8.942343200683593,29.377058823529413
2025-10-20T14:32:03.731436,3.2442748091603053,1.16793893129771,-1.0458015267175573,-0.016759411621093748,-2.7198130859375,9.038111267089842,29.424117647058825
2025-10-20T14:32:03.753518,4.015267175572519,1.2595419847328244,-1.213740458015267,-0.22744915771484372,-2.5330653564453125,8.975862023925782,29.424117647058825
2025-10-20T14:32:03.776384,9.099236641221374,0.6946564885496184,-1.2900763358778626,-0.4285620971679687,-2.2577321655273437,9.07163009033203,29.471176470588237
2025-10-20T14:32:03.793300,4.5038167938931295,0.46564885496183206,-0.732824427480916,0.26336218261718747,-0.9457096557617187,9.763554370117188,29.424117647058825
2025-10-20T14:32:03.814854,3.732824427480916,0.0,-0.03816793893129771,0.25139117431640623,-1.2138602416992186,10.199299072265624,29.377058823529413
2025-10-20T14:32:03.838195,0.8015267175572519,3.236641221374046,0.21374045801526717,0.01915361328125,-2.9089550170898435,9.945513696289062,29.377058823529413
2025-10-20T14:32:03.855100,-12.793893129770993,0.22137404580152673,0.9694656488549618,0.8810662109374999,-1.3311761230468748,9.045293872070312,29.424117647058825
2025-10-20T14:32:03.875697,-18.16793893129771,2.4656488549618323,1.7099236641221374,-0.3184288208007812,-2.1021090576171875,8.968679418945312,29.471176470588237
2025-10-20T14:32:03.898724,-17.755725190839694,-1.3969465648854962,1.6793893129770991,-0.16998831787109375,-2.114080065917969,9.739612353515625,29.330000000000002
2025-10-20T14:32:03.917078,-24.564885496183205,0.24427480916030533,1.9236641221374047,0.5985504150390625,-2.43250888671875,9.131485131835937,29.51823529411765
2025-10-20T14:32:03.936391,-24.18320610687023,4.9541984732824424,1.465648854961832,-0.30406361083984373,-2.427720483398437,8.616731774902343,29.471176470588237
2025-10-20T14:32:03.959229,-20.114503816793892,3.7404580152671754,0.9007633587786259,-0.35673604736328124,-2.8227637573242186,9.686939916992188,29.424117647058825
2025-10-20T14:32:03.978400,-19.47328244274809,5.4961832061068705,0.7022900763358778,-0.5889736083984375,-3.39018955078125,7.632714892578124,29.330000000000002
2025-10-20T14:32:03.996923,-13.053435114503817,5.198473282442748,-0.3511450381679389,-0.7110778930664062,-2.829946362304687,6.947973217773437,29.330000000000002
2025-10-20T14:32:04.019143,-4.549618320610687,0.3511450381679389,-0.3282442748091603,-0.3495534423828125,-3.4955344238281247,7.8338278320312495,29.424117647058825
2025-10-20T14:32:04.039295,1.1755725190839694,1.5267175572519085,-0.33587786259541985,-0.47884033203125,-3.3255461059570313,7.570465649414062,29.424117647058825
2025-10-20T14:32:04.057285,5.786259541984733,-0.16030534351145037,-0.6717557251908397,0.59376201171875,-2.2673089721679687,8.858546142578124,29.424117647058825
2025-10-20T14:32:04.079481,11.030534351145038,0.7480916030534351,-1.1984732824427482,-1.120486376953125,-1.9105729248046874,8.710105639648438,29.330000000000002
2025-10-20T14:32:04.100306,14.0,-3.7557251908396947,-1.3282442748091603,-0.11013327636718749,-1.8914193115234375,8.597578161621094,29.424117647058825
2025-10-20T14:32:04.117278,15.221374045801527,-1.2061068702290076,-1.6412213740458015,-0.507570751953125,-1.5969325073242187,9.282319836425781,29.330000000000002
2025-10-20T14:32:04.139308,13.473282442748092,-2.687022900763359,-1.702290076335878,-0.18914193115234373,-2.2194249389648437,9.07163009033203,29.471176470588237
2025-10-20T14:32:04.160460,7.267175572519084,-1.816793893129771,-1.7328244274809161,0.023942016601562498,-1.2928688964843749,9.878476049804688,29.424117647058825
2025-10-20T14:32:04.177345,2.1374045801526718,0.5877862595419847,-1.6106870229007633,0.04548983154296875,-1.438915197753906,9.217676391601563,29.377058823529413
2025-10-20T14:32:04.199484,-1.6488549618320612,0.7709923664122137,-1.7786259541984732,0.00718260498046875,-1.0702081420898437,10.381258398437499,29.377058823529413
2025-10-20T14:32:04.221517,-7.458015267175573,1.5190839694656488,-1.916030534351145,-0.047884033203124995,-1.9704279663085937,9.179369165039063,29.471176470588237
2025-10-20T14:32:04.238560,-14.007633587786259,3.2977099236641223,-1.984732824427481,-0.15322890625,-1.675941162109375,9.550470422363281,29.424117647058825
2025-10-20T14:32:04.260761,-17.48854961832061,-1.0458015267175573,-1.7633587786259541,0.05985504150390625,-1.5059528442382812,9.330203869628905,29.424117647058825
2025-10-20T14:32:04.283951,-17.732824427480917,4.2748091603053435,-2.2595419847328246,-0.6488286499023437,-2.5809493896484375,8.655039001464843,29.51823529411765
2025-10-20T14:32:04.300856,-17.984732824427482,3.068702290076336,-2.5267175572519083,-0.1388636962890625,-1.3551181396484375,9.121908325195312,29.377058823529413
2025-10-20T14:32:04.322488,-11.106870229007633,0.1984732824427481,-3.312977099236641,-0.12689268798828124,-2.920926025390625,9.188945971679686,29.424117647058825
2025-10-20T14:32:04.345482,-2.2061068702290076,1.0458015267175573,-2.0381679389312977,-0.023942016601562498,-3.0047230834960934,7.831433630371094,29.377058823529413
2025-10-20T14:32:04.362393,4.755725190839694,-1.8015267175572518,-4.190839694656488,0.277727392578125,-2.501940734863281,9.236830004882812,29.51823529411765
2025-10-20T14:32:04.383246,6.893129770992366,1.1603053435114503,-3.763358778625954,-0.15083470458984374,-2.272097375488281,8.540117321777343,29.471176470588237
2025-10-20T14:32:04.406184,8.038167938931299,1.6870229007633588,-3.687022900763359,-0.612915625,-1.8507178833007811,8.810662109374999,29.377058823529413
2025-10-20T14:32:04.423968,15.541984732824428,0.648854961832061,-4.030534351145038,-0.4860229370117187,-1.8052280517578123,9.342174877929686,29.471176470588237
2025-10-20T14:32:04.443895,16.396946564885496,-0.0916030534351145,-4.129770992366412,-0.27293898925781246,-1.4173673828125,9.361328491210937,29.377058823529413
2025-10-20T14:32:04.466588,14.709923664122137,-0.37404580152671757,-4.061068702290076,-0.09576806640624999,-1.3407529296874998,10.615890161132812,29.56529411764706
2025-10-20T14:32:04.485361,5.732824427480916,0.4122137404580153,-3.2977099236641223,0.13646949462890623,-1.2018892333984375,10.251971508789062,29.377058823529413
2025-10-20T14:32:04.504421,-2.969465648854962,1.0687022900763359,-2.2595419847328246,0.201112939453125,-1.8818425048828125,9.052476477050782,29.424117647058825
2025-10-20T14:32:04.526897,-5.297709923664122,0.9694656488549618,-2.435114503816794,0.21068974609375,-1.5801730957031248,9.643844287109374,29.330000000000002
2025-10-20T14:32:04.546011,-9.625954198473282,-0.6335877862595419,-1.6259541984732824,0.7254431030273437,-2.9640216552734375,9.406818322753905,29.471176470588237
2025-10-20T14:32:04.564570,-14.045801526717558,2.4885496183206106,-1.6488549618320612,-0.2657563842773437,-2.300827795410156,8.686163623046875,29.424117647058825
2025-10-20T14:32:04.587139,-14.870229007633588,2.1374045801526718,-1.8473282442748091,-0.0143652099609375,-2.418143676757812,9.222464794921875,29.377058823529413
2025-10-20T14:32:04.607587,-13.648854961832061,2.1374045801526718,-2.3587786259541983,0.08140285644531249,-2.980781066894531,9.030928662109375,29.330000000000002
2025-10-20T14:32:04.624790,-6.862595419847328,1.7709923664122138,-3.6259541984732824,-0.46686932373046874,-2.7269956909179687,8.760383874511719,29.424117647058825
2025-10-20T14:32:04.646970,-5.564885496183206,1.3587786259541985,-4.0458015267175576,-0.13168109130859373,-2.3487118286132813,8.78432589111328,29.424117647058825
2025-10-20T14:32:04.668836,-3.9083969465648853,1.2442748091603053,-4.106870229007634,-0.0909796630859375,-1.9752163696289062,8.190563879394531,29.471176470588237
2025-10-20T14:32:04.685714,7.572519083969466,-0.2595419847328244,-5.229007633587786,-0.2753331909179687,-1.7717092285156248,8.487444885253906,29.424117647058825
2025-10-20T14:32:04.707866,12.564885496183207,-1.7099236641221374,-5.213740458015267,-0.6703764648437499,-2.1906945190429687,8.875305554199219,29.424117647058825
2025-10-20T14:32:04.730555,16.15267175572519,-1.5114503816793894,-5.32824427480916,-0.5698199951171875,-2.1643583007812497,8.705317236328124,29.330000000000002
2025-10-20T14:32:04.747436,21.984732824427482,-3.4427480916030535,-5.343511450381679,-0.0143652099609375,-1.8076222534179687,8.710105639648438,29.424117647058825
2025-10-20T14:32:04.769769,23.83969465648855,-4.297709923664122,-5.1679389312977095,-0.20829554443359374,-1.5466542724609373,9.409212524414063,29.330000000000002
2025-10-20T14:32:04.793110,24.236641221374047,-5.687022900763359,-4.778625954198473,0.1197100830078125,-0.9911994873046874,9.275137231445312,29.471176470588237
2025-10-20T14:32:04.809986,22.572519083969464,-3.50381679389313,-4.404580152671755,-1.1372457885742187,-1.4915876342773438,9.107543115234375,29.424117647058825
2025-10-20T14:32:04.831359,23.374045801526716,-2.6946564885496183,-4.282442748091603,-0.21308394775390624,-0.8930372192382812,9.334992272949219,29.330000000000002
2025-10-20T14:32:04.854443,22.53435114503817,-4.0534351145038165,-4.396946564885496,-0.06703764648437499,-1.8148048583984373,8.820238916015624,29.471176470588237
2025-10-20T14:32:04.871765,26.549618320610687,-3.3206106870229006,-4.519083969465649,-0.7924807495117187,-2.602497204589844,8.772354882812499,29.56529411764706
2025-10-20T14:32:04.892326,28.297709923664122,-7.038167938931298,-4.885496183206107,-0.5458779785156249,-3.758896606445312,7.702146740722656,29.424117647058825
2025-10-20T14:32:04.915210,31.38167938931298,-4.6106870229007635,-5.412213740458015,-0.5291185668945312,-2.5905261962890624,8.36294639892578,29.51823529411765
2025-10-20T14:32:04.933053,38.79389312977099,-4.312977099236641,-6.267175572519084,-0.4860229370117187,-2.080561242675781,8.750807067871094,29.377058823529413
2025-10-20T14:32:04.953196,45.67175572519084,-5.732824427480916,-6.404580152671755,-0.5817910034179687,-1.5298948608398437,8.997409838867187,29.51823529411765
2025-10-20T14:32:04.976243,49.64885496183206,-4.0458015267175576,-6.450381679389313,-0.565031591796875,-0.6703764648437499,9.677363110351562,29.377058823529413
2025-10-20T14:32:04.995392,50.725190839694655,-5.564885496183206,-5.854961832061068,-0.38786066894531246,-0.9528922607421875,8.99501563720703,29.377058823529413
2025-10-20T14:32:05.014068,46.97709923664122,-7.633587786259542,-5.244274809160306,0.22505495605468748,-0.3280056274414062,9.028534460449219,29.424117647058825
2025-10-20T14:32:05.036446,44.229007633587784,-6.122137404580153,-4.229007633587786,0.3591302490234375,0.05027823486328125,10.658985791015624,29.51823529411765
2025-10-20T14:32:05.056391,36.32824427480916,-5.374045801526718,-3.8473282442748094,0.4333505004882812,0.5793968017578125,10.029310754394531,29.424117647058825
2025-10-20T14:32:05.074571,29.251908396946565,-2.732824427480916,-3.8625954198473282,-0.4261678955078125,0.2657563842773437,10.007762939453125,29.377058823529413
2025-10-20T14:32:05.097034,21.450381679389313,-2.1068702290076335,-4.297709923664122,0.5865794067382812,0.74699091796875,9.926360083007811,29.377058823529413
2025-10-20T14:32:05.118078,11.129770992366412,-1.3435114503816794,-4.404580152671755,0.316034619140625,0.21308394775390624,10.108319409179687,29.424117647058825
2025-10-20T14:32:05.137274,2.480916030534351,1.2442748091603053,-4.473282442748092,0.11252747802734374,0.6584054565429687,9.79946739501953,29.424117647058825
2025-10-20T14:32:05.159315,-3.969465648854962,0.732824427480916,-4.320610687022901,0.13168109130859373,0.3711012573242187,9.873687646484374,29.377058823529413
2025-10-20T14:32:05.179624,-14.84732824427481,6.038167938931298,-4.534351145038168,0.8762778076171874,0.5267243652343749,10.287884533691406,29.377058823529413
2025-10-20T14:32:05.196766,-13.938931297709924,4.526717557251908,-4.320610687022901,-0.01915361328125,-0.26815058593749996,10.026916552734374,29.471176470588237
2025-10-20T14:32:05.218844,-17.81679389312977,3.9236641221374047,-4.99236641221374,-0.7589619262695312,-0.5817910034179687,9.490615380859374,29.424117647058825
2025-10-20T14:32:05.240517,-18.442748091603054,6.213740458015267,-4.66412213740458,-0.6344634399414062,-1.2234370483398436,8.238447912597655,29.471176470588237
2025-10-20T14:32:05.257370,-16.442748091603054,1.3740458015267176,-4.66412213740458,-0.3950432739257812,-0.5291185668945312,9.392453112792968,29.424117647058825
2025-10-20T14:32:05.279430,-14.290076335877863,1.1908396946564885,-4.145038167938932,-0.05027823486328125,-1.2856862915039062,9.445125549316407,29.377058823529413
2025-10-20T14:32:05.301981,-13.282442748091603,2.1908396946564888,-1.9770992366412214,-0.28730419921875,-0.3399766357421875,8.875305554199219,29.424117647058825
2025-10-20T14:32:05.318872,-14.473282442748092,1.534351145038168,-2.7557251908396947,0.4285620971679687,-0.584185205078125,9.325415466308593,29.56529411764706
2025-10-20T14:32:05.340784,-15.748091603053435,3.763358778625954,-1.816793893129771,0.5889736083984375,-0.12210428466796874,9.14824454345703,29.471176470588237
2025-10-20T14:32:05.363963,-22.72519083969466,2.595419847328244,-0.5648854961832062,0.9026140258789062,0.4381389038085937,9.785102185058593,29.471176470588237
2025-10-20T14:32:05.380820,-29.977099236641223,6.435114503816794,0.3511450381679389,0.6344634399414062,0.8858546142578124,10.1131078125,29.424117647058825
2025-10-20T14:32:05.401986,-38.64885496183206,6.114503816793893,1.099236641221374,0.32561142578124996,0.6560112548828124,9.744400756835937,29.377058823529413
2025-10-20T14:32:05.424869,-46.86259541984733,6.526717557251908,1.7633587786259541,0.5530605834960938,0.814028564453125,9.198522778320312,29.377058823529413
2025-10-20T14:32:05.441706,-53.63358778625954,8.305343511450381,2.4198473282442747,0.1005564697265625,0.19393033447265623,9.358934289550781,29.424117647058825
2025-10-20T14:32:05.462193,-57.93129770992366,6.824427480916031,2.7251908396946565,0.296881005859375,-0.033518823242187495,9.811438403320311,29.330000000000002
2025-10-20T14:32:05.484865,-59.900763358778626,7.435114503816794,2.7251908396946565,0.09337386474609374,-0.33039982910156246,9.1554271484375,29.424117647058825
2025-10-20T14:32:05.502587,-58.099236641221374,6.442748091603053,2.267175572519084,0.05985504150390625,-1.2401964599609374,7.951143713378905,29.471176470588237
2025-10-20T14:32:05.522234,-52.76335877862596,5.015267175572519,1.7328244274809161,-0.28969840087890625,-1.3575123413085937,8.142679846191406,29.377058823529413
2025-10-20T14:32:05.544923,-42.0763358778626,5.572519083969466,0.9847328244274809,-0.29448680419921874,-1.6136919189453125,8.429984045410155,29.471176470588237
2025-10-20T14:32:05.563924,-33.396946564885496,3.8091603053435112,0.183206106870229,0.08140285644531249,-1.7693150268554687,8.487444885253906,29.424117647058825
2025-10-20T14:32:05.582301,-25.900763358778626,2.0229007633587788,-0.2366412213740458,0.26815058593749996,-1.2569558715820313,8.662221606445312,29.51823529411765
2025-10-20T14:32:05.604561,-19.03053435114504,3.450381679389313,-0.7709923664122137,-0.033518823242187495,-1.8028338500976562,8.283937744140625,29.424117647058825
2025-10-20T14:32:05.624870,-10.244274809160306,3.030534351145038,-1.4351145038167938,0.0718260498046875,-1.8076222534179687,8.722076647949219,29.377058823529413
2025-10-20T14:32:05.641947,-2.7557251908396947,2.717557251908397,-1.9236641221374047,-0.143652099609375,-1.6424223388671875,8.78432589111328,29.377058823529413
2025-10-20T14:32:05.663859,1.7404580152671756,0.061068702290076333,-2.312977099236641,-0.1580173095703125,-1.1611878051757811,9.60793126220703,29.377058823529413
2025-10-20T14:32:05.685436,-0.10687022900763359,1.2366412213740459,-2.351145038167939,-0.45968671875,-1.024718310546875,9.955090502929687,29.424117647058825
2025-10-20T14:32:05.702365,-2.480916030534351,0.6412213740458015,-2.3969465648854964,-0.16280571289062498,-1.177947216796875,9.052476477050782,29.471176470588237
2025-10-20T14:32:05.724474,-7.732824427480916,0.6030534351145038,-2.2213740458015265,-0.3687070556640625,-1.9895815795898437,9.3086560546875,29.424117647058825
2025-10-20T14:32:05.746921,-10.206106870229007,-0.6106870229007634,-2.2519083969465647,-0.5458779785156249,-1.7286135986328124,8.506598498535157,29.377058823529413
2025-10-20T14:32:05.763833,-13.511450381679388,1.0534351145038168,-2.366412213740458,-0.229843359375,-1.8914193115234375,8.901641772460938,29.424117647058825
2025-10-20T14:32:05.786062,-9.244274809160306,-0.44274809160305345,-2.2900763358778624,0.30406361083984373,-3.0023288818359375,8.482656481933594,29.424117647058825
2025-10-20T14:32:05.809453,-2.3893129770992365,-0.6641221374045801,-2.282442748091603,0.11013327636718749,-4.122815258789062,8.010998754882811,29.424117647058825
2025-10-20T14:32:05.826463,12.206106870229007,0.29770992366412213,-2.5801526717557253,-0.3136404174804687,-4.491522314453125,7.613561279296874,29.330000000000002
2025-10-20T14:32:05.847194,21.786259541984734,-1.0,-2.4122137404580153,-0.4836287353515625,-3.859453076171875,8.339004382324218,29.377058823529413
2025-10-20T14:32:05.870135,36.69465648854962,-2.6412213740458017,-2.5801526717557253,-1.1109095703125,-2.8802245971679685,7.544129431152343,29.424117647058825
2025-10-20T14:32:05.887908,52.36641221374046,-4.793893129770993,-2.9618320610687023,-0.7015010864257812,-3.342305517578125,6.919242797851562,29.424117647058825
2025-10-20T14:32:05.907883,62.54961832061068,-2.0916030534351147,-4.259541984732825,-1.1947066284179686,-2.1547814941406247,8.166621862792969,29.330000000000002
2025-10-20T14:32:05.930598,76.96946564885496,-7.442748091603053,-5.282442748091603,-1.218648645019531,-1.6232687255859375,9.119514123535156,29.424117647058825
2025-10-20T14:32:05.949809,84.43511450381679,-10.473282442748092,-5.229007633587786,-0.42377369384765623,-1.1276689819335937,9.765948571777344,29.330000000000002
2025-10-20T14:32:05.968289,82.3206106870229,-10.450381679389313,-4.244274809160306,-0.02154781494140625,-0.6727706665039062,9.773131176757811,29.330000000000002
2025-10-20T14:32:05.990352,75.6030534351145,-7.916030534351145,-3.633587786259542,-0.30406361083984373,-0.47884033203125,9.9215716796875,29.377058823529413
2025-10-20T14:32:06.010377,67.35114503816794,-10.83206106870229,-3.267175572519084,0.3112462158203125,0.06943184814453125,10.237606298828124,29.424117647058825
2025-10-20T14:32:06.028079,60.18320610687023,-7.8320610687022905,-3.1755725190839694,0.7422025146484375,0.46686932373046874,10.474632263183594,29.56529411764706
2025-10-20T14:32:06.050144,49.465648854961835,-6.6106870229007635,-2.877862595419847,0.7805097412109374,0.34715924072265625,11.077971081542968,29.424117647058825
2025-10-20T14:32:06.071180,30.18320610687023,-7.022900763358779,-1.2061068702290076,1.407790576171875,0.6679822631835937,9.6151138671875,29.377058823529413
2025-10-20T14:32:06.088116,8.16030534351145,0.29770992366412213,-0.22137404580152673,0.5626373901367188,0.8020575561523438,10.50815108642578,29.330000000000002
2025-10-20T14:32:06.110049,-5.66412213740458,0.549618320610687,0.7022900763358778,0.622492431640625,0.6943184814453125,10.953472595214842,29.424117647058825
2025-10-20T14:32:06.131743,-22.099236641221374,4.450381679389313,1.6488549618320612,0.24660277099609373,0.7350199096679687,11.429918725585937,29.424117647058825
2025-10-20T14:32:06.149032,-35.038167938931295,7.801526717557252,2.015267175572519,-0.689530078125,0.105344873046875,10.36210478515625,29.377058823529413
2025-10-20T14:32:06.170910,-44.01526717557252,5.900763358778626,1.8549618320610688,0.13407529296874998,0.430956298828125,10.441113439941406,29.330000000000002
2025-10-20T14:32:06.193822,-51.83206106870229,8.80916030534351,1.5267175572519085,-1.0390835205078124,0.1197100830078125,9.90241806640625,29.424117647058825
2025-10-20T14:32:06.210757,-58.11450381679389,7.3893129770992365,0.9236641221374046,-0.6488286499023437,-0.5889736083984375,9.720458740234374,29.424117647058825
2025-10-20T14:32:06.232331,-58.2442748091603,9.076335877862595,-0.9923664122137404,-0.9217676391601562,0.3016694091796875,8.607154968261717,29.471176470588237
2025-10-20T14:32:06.255638,-50.56488549618321,4.931297709923665,-2.4427480916030535,-1.2114660400390624,-1.2401964599609374,8.336610180664062,29.51823529411765
2025-10-20T14:32:06.272555,-38.19083969465649,4.32824427480916,-4.0534351145038165,-1.024718310546875,-0.8451531860351562,7.972691528320312,29.377058823529413
2025-10-20T14:32:06.293157,-32.61832061068702,-0.8473282442748091,-4.480916030534351,-0.35673604736328124,-0.4070142822265625,9.457096557617186,29.51823529411765
2025-10-20T14:32:06.316097,-30.053435114503817,2.3435114503816794,-5.206106870229007,-0.2657563842773437,-0.34715924072265625,8.913612780761719,29.424117647058825
2025-10-20T14:32:06.333882,-26.0,0.46564885496183206,-5.732824427480916,0.16280571289062498,-0.1005564697265625,8.978256225585938,29.377058823529413
2025-10-20T14:32:06.353901,-22.885496183206108,1.4580152671755726,-5.732824427480916,0.45010991210937495,-0.033518823242187495,9.090783703613281,29.471176470588237
2025-10-20T14:32:06.376761,-24.557251908396946,2.5419847328244276,-5.2748091603053435,0.35194764404296874,0.7398083129882812,9.437942944335937,29.377058823529413
2025-10-20T14:32:06.395374,-30.404580152671755,4.129770992366412,-4.862595419847328,0.40940848388671874,0.02633621826171875,9.0788126953125,29.424117647058825
2025-10-20T14:32:06.414264,-32.11450381679389,5.1603053435114505,-4.4961832061068705,0.3327940307617187,0.0047884033203125,9.265560424804686,29.377058823529413
2025-10-20T14:32:06.436380,-30.17557251908397,3.6412213740458017,-4.1603053435114505,0.105344873046875,-0.46208092041015625,8.901641772460938,29.424117647058825
2025-10-20T14:32:06.455835,-25.00763358778626,3.648854961832061,-4.2748091603053435,0.08140285644531249,-1.1468225952148436,8.980650427246093,29.424117647058825
2025-10-20T14:32:06.473907,-21.610687022900763,2.282442748091603,-3.984732824427481,0.09337386474609374,-1.4772224243164063,9.035717065429687,29.471176470588237
2025-10-20T14:32:06.496155,-17.389312977099237,2.366412213740458,-4.290076335877862,-0.13407529296874998,-1.7381904052734374,9.069235888671875,29.471176470588237
2025-10-20T14:32:06.516450,-10.488549618320612,2.1755725190839694,-4.305343511450381,-0.01915361328125,-1.8555062866210936,8.695740429687499,29.424117647058825
2025-10-20T14:32:06.533660,-1.534351145038168,1.9236641221374047,-4.076335877862595,-0.011971008300781249,-2.2577321655273437,8.923189587402343,29.424117647058825
2025-10-20T14:32:06.555598,6.374045801526718,0.5572519083969466,-2.053435114503817,0.105344873046875,-1.9800047729492187,8.71489404296875,29.424117647058825
2025-10-20T14:32:06.577215,14.51908396946565,-0.6335877862595419,-3.427480916030534,0.2059013427734375,-2.1164742675781247,8.688557824707031,29.377058823529413
2025-10-20T14:32:06.594231,22.022900763358777,-0.7709923664122137,-2.4656488549618323,0.143652099609375,-2.147598889160156,9.284714038085937,29.471176470588237
2025-10-20T14:32:06.616196,27.31297709923664,-1.2900763358778626,-1.6412213740458015,0.7158662963867187,-2.0973206542968748,8.932766394042968,29.377058823529413
2025-10-20T14:32:06.638636,32.02290076335878,-2.1526717557251906,-0.5267175572519084,0.5722141967773438,-2.0566192260742184,8.741230261230468,29.471176470588237
2025-10-20T14:32:06.655589,35.68702290076336,-2.2900763358778624,0.3282442748091603,0.622492431640625,-1.5610194824218748,9.265560424804686,29.330000000000002
2025-10-20T14:32:06.677711,31.916030534351144,-1.5725190839694656,1.3206106870229009,1.1635820068359375,-0.39743747558593745,9.126696728515624,29.424117647058825
2025-10-20T14:32:06.700779,29.213740458015266,-2.381679389312977,2.801526717557252,1.1563994018554686,-0.4261678955078125,10.81460889892578,29.471176470588237
2025-10-20T14:32:06.717689,20.893129770992367,1.7251908396946565,3.5572519083969465,1.7429788085937499,-0.03591302490234375,10.395623608398436,29.424117647058825
2025-10-20T14:32:06.738773,12.557251908396946,-0.0916030534351145,4.427480916030534,1.3479355346679687,-0.5315127685546874,9.85692823486328,29.471176470588237
2025-10-20T14:32:06.761888,6.015267175572519,0.17557251908396945,4.519083969465649,0.7613561279296874,-0.7709329345703124,9.588777648925781,29.377058823529413
2025-10-20T14:32:06.779655,3.5419847328244276,1.1221374045801527,3.946564885496183,0.06703764648437499,-0.6081272216796875,8.798691101074219,29.471176470588237
2025-10-20T14:32:06.799614,1.213740458015267,-0.31297709923664124,3.1374045801526718,0.21787235107421873,-0.7038952880859375,9.3852705078125,29.424117647058825
2025-10-20T14:32:06.822298,0.6793893129770993,1.4809160305343512,1.6488549618320612,-0.9313444458007812,-0.8714894042968749,9.026140258789061,29.330000000000002
2025-10-20T14:32:06.841360,2.877862595419847,-1.4122137404580153,0.7633587786259542,-1.0414777221679687,-1.5322890624999999,8.700528833007812,29.28294117647059
2025-10-20T14:32:06.859866,7.412213740458015,-1.3435114503816794,-1.9389312977099236,-1.3048399047851562,-2.0063409912109376,8.635885388183594,29.471176470588237
2025-10-20T14:32:06.882191,16.33587786259542,-2.1603053435114505,-4.458015267175573,-1.3742717529296875,-1.3168109130859373,7.788338000488281,29.330000000000002
2025-10-20T14:32:06.902549,26.793893129770993,-5.854961832061068,-6.3816793893129775,-0.7948749511718749,-1.1037269653320312,8.109161022949218,29.377058823529413
2025-10-20T14:32:06.920208,36.465648854961835,-3.648854961832061,-7.358778625954199,-0.6344634399414062,-0.9433154541015625,8.343792785644531,29.471176470588237
2025-10-20T14:32:06.941965,42.51908396946565,-6.816793893129771,-7.511450381679389,-0.13646949462890623,-0.6919242797851562,8.94473740234375,29.471176470588237
2025-10-20T14:32:06.962763,47.152671755725194,-7.908396946564886,-7.244274809160306,-0.18435352783203124,-0.8188169677734375,8.762778076171875,29.424117647058825
2025-10-20T14:32:06.979680,51.79389312977099,-9.923664122137405,-6.793893129770993,-0.35194764404296874,-0.612915625,8.549694128417968,29.471176470588237
2025-10-20T14:32:07.001714,57.79389312977099,-10.778625954198473,-6.694656488549619,-0.08140285644531249,-0.4070142822265625,8.920795385742187,29.330000000000002
2025-10-20T14:32:07.023781,62.68702290076336,-12.076335877862595,-6.1603053435114505,-0.44532150878906246,-0.8164227661132812,9.07163009033203,29.377058823529413
2025-10-20T14:32:07.042288,63.213740458015266,-12.618320610687023,-4.9465648854961835,0.45489831542968745,0.7852981445312499,9.97184991455078,29.330000000000002
2025-10-20T14:32:07.073705,60.18320610687023,-10.961832061068701,-3.5267175572519083,-0.10773907470703124,0.7206546997070312,9.627084875488281,29.424117647058825
2025-10-20T14:32:07.091173,51.69465648854962,-7.969465648854962,-1.5801526717557253,0.33758243408203126,1.5442600708007812,10.098742602539062,29.377058823529413
2025-10-20T14:32:07.113103,47.17557251908397,-6.3893129770992365,-0.6106870229007634,0.4165910888671875,1.637633935546875,10.158597644042969,29.377058823529413
2025-10-20T14:32:07.134812,40.41984732824427,-4.877862595419847,-0.366412213740458,0.7302315063476562,2.0661960327148434,10.309432348632813,29.377058823529413
2025-10-20T14:32:07.151651,30.061068702290076,-2.854961832061069,0.7175572519083969,0.5530605834960938,2.01112939453125,9.868899243164062,29.51823529411765
2025-10-20T14:32:07.173447,20.778625954198475,-2.3435114503816794,1.282442748091603,0.5291185668945312,2.0542250244140625,10.108319409179687,29.424117647058825
2025-10-20T14:32:07.196328,10.251908396946565,-0.7251908396946565,1.4427480916030535,0.5363011718749999,1.5873557006835937,9.770736975097655,29.51823529411765
2025-10-20T14:32:07.213160,4.984732824427481,0.4580152671755725,0.5343511450381679,0.5746083984375,1.2569558715820313,9.399635717773437,29.471176470588237
2025-10-20T14:32:07.234433,3.045801526717557,1.2671755725190839,-0.6335877862595419,-0.040701428222656245,1.1252747802734375,9.41639512939453,29.377058823529413
2025-10-20T14:32:07.257520,4.679389312977099,1.786259541984733,-2.099236641221374,-0.9002198242187499,1.0414777221679687,9.114725720214842,29.424117647058825
2025-10-20T14:32:07.274757,5.8320610687022905,1.2366412213740459,-3.6259541984732824,-0.8403647827148437,1.2330138549804688,8.856151940917968,29.424117647058825
2025-10-20T14:32:07.294591,8.206106870229007,0.21374045801526717,-4.465648854961832,-0.6607996582031249,1.6519991455078125,9.105148913574219,29.471176470588237
2025-10-20T14:32:07.316924,8.351145038167939,0.2900763358778626,-4.816793893129771,-0.5746083984375,2.7246014892578123,9.567229833984374,29.424117647058825
2025-10-20T14:32:07.335006,8.618320610687023,0.6946564885496184,-4.152671755725191,-0.29927520751953124,2.0781670410156248,9.093177905273437,29.471176470588237
2025-10-20T14:32:07.354048,7.916030534351145,0.5190839694656488,-3.9389312977099236,0.105344873046875,2.281674182128906,8.94473740234375,29.377058823529413
2025-10-20T14:32:07.376887,7.977099236641221,1.7786259541984732,-3.1755725190839694,0.4572925170898437,2.1811177124023438,9.504980590820312,29.424117647058825
2025-10-20T14:32:07.396317,8.916030534351146,1.7633587786259541,-2.7251908396946565,0.622492431640625,2.1906945190429687,9.3852705078125,29.424117647058825
2025-10-20T14:32:07.414564,10.618320610687023,2.045801526717557,-3.0916030534351147,1.0414777221679687,1.8602946899414061,8.59278975830078,29.51823529411765
2025-10-20T14:32:07.436432,14.229007633587786,1.1145038167938932,-3.6030534351145036,0.5793968017578125,1.8722656982421875,8.640673791503906,29.424117647058825
2025-10-20T14:32:07.456672,14.763358778625955,0.366412213740458,-4.152671755725191,0.6775590698242188,2.2768857788085937,9.22485899658203,29.330000000000002
2025-10-20T14:32:07.473954,14.267175572519085,-0.10687022900763359,-4.083969465648855,0.9337386474609375,2.6719290527343746,9.220070593261719,29.424117647058825
2025-10-20T14:32:07.495942,14.129770992366412,-0.4198473282442748,-4.549618320610687,0.8403647827148437,2.6144682128906247,9.251195214843749,29.330000000000002
2025-10-20T14:32:07.517045,15.15267175572519,0.21374045801526717,-5.229007633587786,0.6512228515624999,2.5737667846679684,8.901641772460938,29.424117647058825
2025-10-20T14:32:07.533894,16.954198473282442,0.5954198473282443,-5.3893129770992365,0.6272808349609375,2.3870190551757813,8.683769421386717,29.424117647058825
2025-10-20T14:32:07.555721,17.38167938931298,1.0916030534351144,-5.6106870229007635,0.6440402465820312,2.829946362304687,8.91840118408203,29.424117647058825
2025-10-20T14:32:07.577252,15.564885496183207,0.5725190839694656,-5.824427480916031,0.8212111694335937,2.549824768066406,9.165003955078124,29.424117647058825
2025-10-20T14:32:07.594082,12.992366412213741,0.4198473282442748,-5.877862595419847,0.49320554199218747,2.3965958618164063,8.580818749999999,29.471176470588237
2025-10-20T14:32:07.617208,11.007633587786259,0.6564885496183206,-5.7251908396946565,0.7302315063476562,3.0526071166992184,8.760383874511719,29.330000000000002
2025-10-20T14:32:07.639166,8.068702290076336,-1.9465648854961832,-5.152671755725191,0.5865794067382812,3.0741549316406247,9.090783703613281,29.377058823529413
2025-10-20T14:32:07.655969,0.8854961832061069,0.8244274809160306,-4.755725190839694,0.47884033203125,2.961627453613281,9.753977563476562,29.471176470588237
2025-10-20T14:32:07.677900,-5.740458015267175,0.5877862595419847,-4.297709923664122,0.7613561279296874,3.296815686035156,9.047688073730468,29.377058823529413
2025-10-20T14:32:07.701042,-12.511450381679388,0.6030534351145038,-4.0,1.158793603515625,2.8275521606445313,9.325415466308593,29.424117647058825
2025-10-20T14:32:07.717856,-17.34351145038168,1.099236641221374,-3.3435114503816794,0.6344634399414062,2.81558115234375,8.710105639648438,29.471176470588237
2025-10-20T14:32:07.738902,-19.27480916030534,1.3206106870229009,-3.2061068702290076,0.7733271362304687,2.559401574707031,9.255983618164063,29.424117647058825
2025-10-20T14:32:07.761655,-22.572519083969464,2.717557251908397,-2.4427480916030535,0.6105214233398437,2.6408044311523438,9.282319836425781,29.424117647058825
2025-10-20T14:32:07.778891,-25.51145038167939,2.519083969465649,-1.7633587786259541,0.47884033203125,2.35589443359375,9.157821350097656,29.424117647058825
2025-10-20T14:32:07.798885,-26.366412213740457,2.2900763358778624,-1.0381679389312977,0.23702596435546874,1.43652099609375,9.162609753417968,29.424117647058825
2025-10-20T14:32:07.821340,-27.87786259541985,2.8931297709923665,-0.916030534351145,0.39743747558593745,2.6216508178710938,9.100360510253905,29.424117647058825
2025-10-20T14:32:07.839425,-27.870229007633586,0.549618320610687,-0.4580152671755725,0.43574470214843747,2.212242333984375,9.356540087890625,29.377058823529413
2025-10-20T14:32:07.858561,-27.206106870229007,2.6717557251908395,-0.2824427480916031,0.00718260498046875,2.032677209472656,9.076418493652342,29.377058823529413
2025-10-20T14:32:07.880805,-26.61832061068702,-1.7786259541984732,0.4122137404580153,-0.239420166015625,1.2832920898437499,9.234435803222656,29.377058823529413
2025-10-20T14:32:07.899777,-25.290076335877863,0.8473282442748091,0.7251908396946565,0.679953271484375,0.36391865234375,9.425971936035156,29.471176470588237
2025-10-20T14:32:07.918150,-21.977099236641223,-2.66412213740458,0.48091603053435117,0.39264907226562495,1.0965443603515623,8.916006982421875,29.424117647058825
2025-10-20T14:32:07.940324,-18.427480916030536,0.3893129770992366,0.6335877862595419,-0.38307226562499996,1.8435352783203125,10.01733974609375,29.424117647058825
2025-10-20T14:32:07.960606,-15.526717557251908,-1.6870229007633588,0.6870229007633588,-0.0430956298828125,1.216254443359375,8.70771143798828,29.51823529411765
2025-10-20T14:32:07.977639,-10.908396946564885,-2.549618320610687,0.8778625954198473,0.09337386474609374,1.3814543579101561,9.370905297851563,29.424117647058825
2025-10-20T14:32:07.999508,-7.854961832061068,-1.450381679389313,1.0916030534351144,0.06943184814453125,1.6543933471679686,9.76116016845703,29.424117647058825
2025-10-20T14:32:08.021080,-9.198473282442748,-1.5877862595419847,1.3206106870229009,0.033518823242187495,1.5897499023437498,9.212887988281249,29.471176470588237
2025-10-20T14:32:08.037908,-10.030534351145038,-1.8778625954198473,1.618320610687023,0.33039982910156246,1.6160861206054686,9.533711010742186,29.471176470588237
2025-10-20T14:32:08.060052,-11.061068702290076,-0.48091603053435117,1.633587786259542,0.6248866333007812,1.7908628417968748,9.634267480468749,29.330000000000002
2025-10-20T14:32:08.082945,-12.511450381679388,1.8854961832061068,1.4961832061068703,0.6488286499023437,1.599326708984375,9.289502441406249,29.424117647058825
2025-10-20T14:32:08.099766,-16.709923664122137,0.13740458015267176,1.5038167938931297,0.4429273071289062,1.5682020874023437,9.598354455566406,29.28294117647059
2025-10-20T14:32:08.121252,-20.198473282442748,1.8244274809160306,1.5190839694656488,0.4381389038085937,1.5298948608398437,9.196128576660156,29.471176470588237
2025-10-20T14:32:08.144281,-23.259541984732824,1.0381679389312977,1.4045801526717556,0.3711012573242187,1.1707646118164061,9.380482104492186,29.424117647058825
2025-10-20T14:32:08.161105,-25.770992366412212,1.816793893129771,1.183206106870229,0.4572925170898437,1.0295067138671874,9.473855969238281,29.424117647058825
2025-10-20T14:32:08.181520,-25.480916030534353,2.7099236641221376,1.2748091603053435,0.3806780639648437,0.82360537109375,9.320627062988281,29.424117647058825
2025-10-20T14:32:08.204120,-30.587786259541986,3.427480916030534,1.3358778625954197,0.09337386474609374,0.9840168823242187,9.497797985839844,29.377058823529413
2025-10-20T14:32:08.221794,-35.7557251908397,4.198473282442748,1.183206106870229,-0.055066638183593745,1.0366893188476562,9.176974963378905,29.51823529411765
2025-10-20T14:32:08.241356,-37.6793893129771,4.687022900763359,0.7786259541984732,0.04548983154296875,0.8834604125976562,9.344569079589844,29.471176470588237
2025-10-20T14:32:08.263726,-39.12213740458015,5.145038167938932,0.6412213740458015,0.21787235107421873,1.2521674682617188,9.375693701171874,29.424117647058825
2025-10-20T14:32:08.282251,-47.404580152671755,5.114503816793893,0.48854961832061067,0.30406361083984373,1.01514150390625,9.686939916992188,29.471176470588237
2025-10-20T14:32:08.300923,-54.31297709923664,5.5038167938931295,0.45038167938931295,0.373495458984375,0.9816226806640624,9.567229833984374,29.330000000000002
2025-10-20T14:32:08.323016,-61.786259541984734,6.206106870229007,0.916030534351145,0.373495458984375,0.612915625,9.832986218261718,29.377058823529413
2025-10-20T14:32:08.342398,-70.8854961832061,7.259541984732825,1.2671755725190839,0.2537853759765625,0.3399766357421875,9.967061511230469,29.424117647058825
2025-10-20T14:32:08.360227,-77.61832061068702,5.862595419847328,1.4198473282442747,0.24660277099609373,0.3016694091796875,9.667786303710937,29.377058823529413
2025-10-20T14:32:08.382132,-80.19847328244275,8.030534351145038,1.6564885496183206,0.07422025146484375,-0.033518823242187495,9.579200842285156,29.424117647058825
2025-10-20T14:32:08.402398,-85.6030534351145,8.595419847328245,1.4351145038167938,0.17477672119140625,-0.36152445068359373,9.485826977539062,29.424117647058825
2025-10-20T14:32:08.419382,-85.44274809160305,8.335877862595419,1.2900763358778626,-0.14125789794921875,-0.6823474731445313,8.80347950439453,29.51823529411765
2025-10-20T14:32:08.441273,-82.3206106870229,8.32824427480916,0.9847328244274809,0.0383072265625,-0.9911994873046874,8.425195642089843,29.51823529411765
2025-10-20T14:32:08.462797,-74.99236641221374,8.259541984732824,0.6030534351145038,-0.45968671875,-1.3838485595703125,7.934384301757812,29.330000000000002
2025-10-20T14:32:08.479607,-69.35114503816794,7.870229007633588,0.25190839694656486,-0.09337386474609374,-1.3766659545898436,8.348581188964843,29.377058823529413
2025-10-20T14:32:08.501351,-65.30534351145039,7.099236641221374,-0.12213740458015267,-0.3327940307617187,-1.13006318359375,8.585607153320312,29.471176470588237
2025-10-20T14:32:08.523730,-63.13740458015267,5.221374045801527,-0.5114503816793893,-0.36391865234375,-1.407790576171875,8.257601525878906,29.51823529411765
2025-10-20T14:32:08.540566,-58.0,3.618320610687023,-1.2671755725190839,0.12210428466796874,-1.2665326782226562,8.281543542480469,29.471176470588237
2025-10-20T14:32:08.562408,-53.61832061068702,2.549618320610687,-1.6946564885496183,-0.258573779296875,-2.2002713256835937,7.922413293457031,29.424117647058825
2025-10-20T14:32:08.585454,-49.0,2.5267175572519083,-1.984732824427481,0.40462008056640625,-2.138022082519531,8.652644799804687,29.377058823529413
2025-10-20T14:32:08.602286,-46.45038167938932,2.564885496183206,-3.8931297709923665,0.13407529296874998,-2.085349645996094,8.480262280273436,29.377058823529413
2025-10-20T14:32:08.623266,-44.01526717557252,0.13740458015267176,-2.3587786259541983,-0.44532150878906246,-2.4851813232421875,8.67658681640625,29.424117647058825
2025-10-20T14:32:08.646013,-39.25190839694657,3.381679389312977,-2.213740458015267,-0.44053310546874996,-2.971204260253906,8.872911352539061,29.424117647058825
2025-10-20T14:32:08.663265,-38.83206106870229,5.572519083969466,-2.450381679389313,-0.031124621582031248,-3.246537451171875,9.05965908203125,29.424117647058825
2025-10-20T14:32:08.683432,-36.37404580152672,4.038167938931298,-2.435114503816794,0.08140285644531249,-3.404554760742187,8.865728747558594,29.471176470588237
2025-10-20T14:32:08.705933,-35.58015267175573,4.0534351145038165,-3.854961832061069,-0.3399766357421875,-3.842693664550781,8.305485559082031,29.51823529411765
2025-10-20T14:32:08.724069,-35.14503816793893,3.198473282442748,-1.7099236641221374,-0.028730419921875,-4.177881896972656,8.051700183105469,29.471176470588237
2025-10-20T14:32:08.743231,-28.419847328244273,2.66412213740458,-1.465648854961832,-0.3232172241210937,-5.2265422241210935,8.307879760742187,29.330000000000002
2025-10-20T14:32:08.765430,-23.3206106870229,1.4122137404580153,-1.7557251908396947,-0.2561795776367187,-5.090072729492187,7.754819177246094,29.51823529411765
2025-10-20T14:32:08.784389,-14.610687022900763,-0.16793893129770993,-1.6564885496183206,-0.29927520751953124,-4.151545678710937,8.846575134277343,29.51823529411765
2025-10-20T14:32:08.802652,-10.702290076335878,-1.381679389312977,-1.7099236641221374,-0.5698199951171875,-4.611232397460937,8.542511523437499,29.330000000000002
2025-10-20T14:32:08.824880,-8.564885496183207,-1.3206106870229009,-1.3587786259541985,-0.9600748657226562,-3.909731311035156,8.513781103515624,29.424117647058825
2025-10-20T14:32:08.845150,-5.801526717557252,-2.2290076335877864,-0.7862595419847328,-0.5243301635742187,-4.853046765136718,8.37012900390625,29.377058823529413
2025-10-20T14:32:08.862244,-3.2519083969465647,-0.6106870229007634,-0.35877862595419846,-0.3854664672851562,-5.513846423339843,8.56166513671875,29.471176470588237
2025-10-20T14:32:08.884108,-1.7938931297709924,-1.2061068702290076,0.16793893129770993,0.4572925170898437,-5.7508723876953125,7.675810522460937,29.471176470588237
2025-10-20T14:32:08.905659,7.1603053435114505,-0.9694656488549618,1.6793893129770991,-0.08140285644531249,-6.169857678222656,8.188169677734374,29.424117647058825
2025-10-20T14:32:08.922470,11.854961832061068,-1.1068702290076335,2.8702290076335877,-0.2442085693359375,-5.2456958374023435,8.468291271972657,29.51823529411765
2025-10-20T14:32:08.944503,11.748091603053435,-1.7633587786259541,4.106870229007634,0.22266075439453123,-4.6447512207031245,9.112331518554686,29.377058823529413
2025-10-20T14:32:08.966531,9.061068702290076,0.7022900763358778,5.572519083969466,-0.34715924072265625,-4.989516259765625,8.923189587402343,29.377058823529413
2025-10-20T14:32:08.983424,9.13740458015267,-0.4961832061068702,5.931297709923665,-0.4836287353515625,-4.659116430664063,9.169792358398437,29.51823529411765
2025-10-20T14:32:09.005322,9.13740458015267,-0.8091603053435115,6.0534351145038165,-0.7948749511718749,-4.007893579101562,9.289502441406249,29.51823529411765
2025-10-20T14:32:09.028482,2.7480916030534353,-0.648854961832061,3.9160305343511452,-0.36152445068359373,-3.9695863525390624,8.614337573242187,29.471176470588237
2025-10-20T14:32:09.045289,-2.801526717557252,0.9770992366412213,6.1603053435114505,-0.0430956298828125,-4.182670300292968,9.220070593261719,29.424117647058825
2025-10-20T14:32:09.066391,-8.01526717557252,-0.13740458015267176,6.404580152671755,-0.40222587890625,-4.438849877929687,9.22485899658203,29.51823529411765
2025-10-20T14:32:09.089571,-12.305343511450381,0.04580152671755725,6.442748091603053,-0.49799394531249996,-3.9312791259765625,8.535328918457031,29.377058823529413
2025-10-20T14:32:09.107254,-13.442748091603054,0.6412213740458015,5.6106870229007635,-0.42377369384765623,-4.386177441406249,8.75320126953125,29.51823529411765
2025-10-20T14:32:09.126816,-13.641221374045802,1.2595419847328244,4.885496183206107,-0.63206923828125,-4.218583325195312,8.372523205566406,29.377058823529413
2025-10-20T14:32:09.149315,-15.045801526717558,2.648854961832061,3.946564885496183,-0.8188169677734375,-3.84987626953125,7.773972790527344,29.377058823529413
2025-10-20T14:32:09.167847,-15.366412213740459,0.06870229007633588,3.4427480916030535,-0.74699091796875,-3.9815573608398434,7.862558251953125,29.51823529411765
2025-10-20T14:32:09.187034,-14.442748091603054,2.954198473282443,2.4885496183206106,-0.7637503295898437,-4.407725256347656,7.620743884277343,29.377058823529413
2025-10-20T14:32:09.209269,-11.900763358778626,1.2442748091603053,2.068702290076336,-0.8595183959960937,-4.357447021484375,7.484274389648437,29.377058823529413
2025-10-20T14:32:09.229501,-8.763358778625955,0.8244274809160306,1.183206106870229,-0.4836287353515625,-4.220977526855468,7.7787611938476555,29.471176470588237
2025-10-20T14:32:09.246591,-6.732824427480916,-1.916030534351145,1.2061068702290076,-0.6560112548828124,-4.110844250488281,7.4794859863281244,29.424117647058825
2025-10-20T14:32:09.268477,-4.5038167938931295,-3.732824427480916,0.8778625954198473,-0.6631938598632812,-4.2521021484374995,7.230489013671875,29.377058823529413
2025-10-20T14:32:09.290009,-1.4732824427480915,-3.2977099236641223,1.0916030534351144,-0.40222587890625,-4.218583325195312,8.377311608886718,29.424117647058825
2025-10-20T14:32:09.306873,0.3053435114503817,-3.5572519083969465,1.2671755725190839,0.32561142578124996,-4.129997863769531,8.252813122558594,29.471176470588237
2025-10-20T14:32:09.328880,0.21374045801526717,-4.2748091603053435,1.3587786259541985,0.143652099609375,-4.04141240234375,7.915230688476562,29.377058823529413
2025-10-20T14:32:09.351262,4.297709923664122,-3.595419847328244,1.6946564885496183,0.33518823242187495,-4.4005426513671875,8.008604553222655,29.377058823529413
2025-10-20T14:32:09.368202,4.870229007633588,-2.1908396946564888,1.9923664122137406,0.06943184814453125,-4.297591979980469,8.542511523437499,29.424117647058825
2025-10-20T14:32:09.390199,5.6183206106870225,-1.16793893129771,2.3206106870229006,0.09337386474609374,-4.161122485351562,8.844180932617187,29.424117647058825
2025-10-20T14:32:09.413521,5.282442748091603,-0.8091603053435115,2.1908396946564888,-0.016759411621093748,-3.912125512695312,8.1594392578125,29.330000000000002
2025-10-20T14:32:09.430365,6.450381679389313,-0.2900763358778626,2.4198473282442747,-0.06943184814453125,-3.7995980346679685,8.224082702636718,29.330000000000002
2025-10-20T14:32:09.451284,6.030534351145038,-0.6106870229007634,2.198473282442748,-0.1292868896484375,-3.5386300537109374,8.628702783203124,29.424117647058825
2025-10-20T14:32:09.474051,4.9541984732824424,-1.0534351145038168,0.09923664122137404,-0.316034619140625,-3.7900212280273435,8.003816149902343,29.424117647058825
2025-10-20T14:32:09.491305,5.8396946564885495,-2.2748091603053435,1.6259541984732824,-0.41419688720703124,-3.641580725097656,8.087613208007811,29.330000000000002
2025-10-20T14:32:09.511311,6.511450381679389,-2.595419847328244,1.1908396946564885,-0.36152445068359373,-3.2632968627929686,8.32463917236328,29.424117647058825
2025-10-20T14:32:09.533715,5.534351145038168,-2.8091603053435112,0.7633587786259542,-0.3902548706054687,-3.5960908935546874,7.8170684204101555,29.51823529411765
2025-10-20T14:32:09.551826,5.793893129770993,-2.969465648854962,0.2595419847328244,-0.24660277099609373,-3.9145197143554684,8.262389929199218,29.471176470588237
2025-10-20T14:32:09.570972,5.679389312977099,-3.7404580152671754,0.0916030534351145,-0.05985504150390625,-3.88818349609375,8.382100012207031,29.424117647058825
2025-10-20T14:32:09.593204,5.5038167938931295,-2.2442748091603053,-1.900763358778626,-0.4525041137695312,-3.845087866210937,8.724470849609375,29.424117647058825
2025-10-20T14:32:09.612176,5.8320610687022905,-1.381679389312977,-0.29770992366412213,-0.0909796630859375,-4.2305543334960936,8.66940421142578,29.424117647058825
2025-10-20T14:32:09.630446,5.198473282442748,-0.29770992366412213,-0.35877862595419846,-0.3232172241210937,-3.689464758300781,8.25520732421875,29.377058823529413
2025-10-20T14:32:09.652680,4.7251908396946565,-1.7251908396946565,-0.22137404580152673,-0.21308394775390624,-4.13718046875,8.520963708496094,29.56529411764706
2025-10-20T14:32:09.672943,3.213740458015267,-0.9923664122137404,-0.42748091603053434,-0.40462008056640625,-3.564966271972656,8.609549169921875,29.471176470588237
2025-10-20T14:32:09.689940,2.1068702290076335,-3.66412213740458,-0.3053435114503817,-0.27293898925781246,-3.7325603881835936,8.465897070312499,29.377058823529413
2025-10-20T14:32:09.711806,-0.4580152671755725,-2.5114503816793894,-0.030534351145038167,-0.35673604736328124,-3.9839515624999997,8.228871105957031,29.377058823529413
2025-10-20T14:32:09.733416,-1.4198473282442747,-2.6412213740458017,-0.08396946564885496,-0.2609679809570312,-3.821145849609375,8.55448253173828,29.424117647058825
2025-10-20T14:32:09.750232,-3.8931297709923665,-2.7404580152671754,0.35877862595419846,-0.07900865478515624,-3.7900212280273435,8.808267907714843,29.330000000000002
2025-10-20T14:32:09.772281,-4.984732824427481,-2.0381679389312977,0.7175572519083969,-0.04548983154296875,-3.5242648437499997,8.590395556640624,29.471176470588237
2025-10-20T14:32:09.795133,-4.8320610687022905,-1.9694656488549618,1.1908396946564885,0.22744915771484372,-3.9647979492187497,8.59278975830078,29.471176470588237
2025-10-20T14:32:09.811950,-5.076335877862595,-0.6793893129770993,1.6717557251908397,-0.18914193115234373,-3.9360675292968748,8.602366564941406,29.471176470588237
2025-10-20T14:32:09.833335,-5.778625954198473,0.08396946564885496,2.099236641221374,-0.14125789794921875,-3.892971899414062,8.662221606445312,29.471176470588237
2025-10-20T14:32:09.856244,-5.755725190839694,-0.3511450381679389,2.5114503816793894,-0.277727392578125,-3.9312791259765625,8.40125362548828,29.424117647058825
2025-10-20T14:32:09.873059,-3.5801526717557253,1.015267175572519,2.8396946564885495,-0.27293898925781246,-3.718195178222656,8.415618835449218,29.471176470588237
2025-10-20T14:32:09.893474,-2.33587786259542,-0.6717557251908397,3.1755725190839694,-0.22266075439453123,-3.718195178222656,8.310273962402343,29.51823529411765
2025-10-20T14:32:09.916304,-2.564885496183206,-0.8015267175572519,3.427480916030534,-0.4070142822265625,-3.632003918457031,8.092401611328125,29.330000000000002
2025-10-20T14:32:09.934389,-3.1526717557251906,-0.6870229007633588,3.427480916030534,-0.3495534423828125,-3.7301661865234372,8.413224633789062,29.424117647058825
2025-10-20T14:32:09.953410,-5.572519083969466,-3.50381679389313,3.6030534351145036,-0.41898529052734373,-3.5194764404296874,8.726865051269531,29.424117647058825
2025-10-20T14:32:09.975434,-4.366412213740458,-2.1526717557251906,3.7786259541984735,-0.4261678955078125,-3.7229835815429686,8.690952026367187,29.471176470588237
2025-10-20T14:32:09.994785,-5.4961832061068705,-1.984732824427481,3.519083969465649,-0.16041151123046873,-3.284844677734375,8.674192614746094,29.424117647058825
2025-10-20T14:32:10.012549,-6.694656488549619,-1.4427480916030535,3.3053435114503817,-0.2705447875976562,-3.6080619018554687,8.497021691894531,29.51823529411765
2025-10-20T14:32:10.034195,-6.633587786259542,-1.5114503816793894,3.1603053435114505,-0.143652099609375,-3.6391865234374996,8.406042028808594,29.424117647058825
2025-10-20T14:32:10.054784,-6.251908396946565,-0.31297709923664124,2.763358778625954,-0.15562310791015624,-4.019864587402344,8.078036401367187,29.424117647058825
2025-10-20T14:32:10.071572,-4.793893129770993,-0.6641221374045801,2.3587786259541983,-0.21308394775390624,-3.797203833007812,8.271966735839843,29.424117647058825
2025-10-20T14:32:10.093671,-2.854961832061069,-0.4351145038167939,2.030534351145038,-0.3064578125,-3.861847277832031,7.898471276855468,29.330000000000002
2025-10-20T14:32:10.116018,1.7557251908396947,-0.9770992366412213,1.6488549618320612,-0.46686932373046874,-4.228160131835938,7.556100439453124,29.424117647058825
2025-10-20T14:32:10.134347,8.488549618320612,-3.8931297709923665,1.4351145038167938,-1.0127473022460938,-4.510675927734375,7.694964135742187,29.424117647058825
2025-10-20T14:32:10.155832,11.549618320610687,-2.0,1.9083969465648856,-0.6943184814453125,-4.13718046875,7.960720520019531,29.51823529411765
2025-10-20T14:32:10.178656,14.541984732824428,-5.152671755725191,2.1755725190839694,-0.296881005859375,-3.6104561035156246,8.494627490234375,29.471176470588237
2025-10-20T14:32:10.195491,16.17557251908397,-3.099236641221374,2.549618320610687,-0.34237083740234375,-3.938461730957031,8.394071020507813,29.471176470588237
2025-10-20T14:32:10.216297,18.977099236641223,-4.297709923664122,2.7480916030534353,-0.4261678955078125,-4.027047192382812,8.386888415527343,29.51823529411765
2025-10-20T14:32:10.238937,20.755725190839694,-3.648854961832061,2.7938931297709924,-0.38307226562499996,-3.73495458984375,8.839392529296875,29.424117647058825
2025-10-20T14:32:10.255780,19.46564885496183,-2.122137404580153,3.3587786259541983,0.0,-3.0789433349609374,8.769960681152343,29.424117647058825
2025-10-20T14:32:10.276401,17.69465648854962,-2.030534351145038,3.6946564885496183,-0.0383072265625,-2.7916391357421872,9.258377819824219,29.471176470588237
2025-10-20T14:32:10.298932,14.725190839694656,-2.435114503816794,4.145038167938932,-0.23702596435546874,-3.4715924072265625,9.05965908203125,29.330000000000002
2025-10-20T14:32:10.316695,11.870229007633588,-2.6106870229007635,4.534351145038168,0.2442085693359375,-3.7229835815429686,8.990227233886719,29.424117647058825
2025-10-20T14:32:10.336365,11.900763358778626,-3.6946564885496183,4.8396946564885495,0.28012159423828126,-4.04141240234375,8.865728747558594,29.330000000000002
2025-10-20T14:32:10.358891,12.641221374045802,-1.5725190839694656,5.221374045801527,-0.3327940307617187,-4.584896179199219,8.549694128417968,29.424117647058825
2025-10-20T14:32:10.377837,14.549618320610687,-2.435114503816794,5.450381679389313,-0.19393033447265623,-3.7229835815429686,8.82263311767578,29.424117647058825
2025-10-20T14:32:10.396055,15.908396946564885,-2.0381679389312977,5.5038167938931295,-0.3950432739257812,-3.842693664550781,8.66940421142578,29.424117647058825
2025-10-20T14:32:10.418217,18.732824427480917,-3.3740458015267176,5.33587786259542,-0.55545478515625,-3.4739866088867184,8.334215979003906,29.377058823529413
2025-10-20T14:32:10.439094,22.389312977099237,-3.763358778625954,5.236641221374046,-0.39264907226562495,-3.0813375366210938,8.537723120117187,29.377058823529413
2025-10-20T14:32:10.456208,23.83969465648855,-3.4732824427480917,5.1679389312977095,-0.46686932373046874,-2.5426421630859375,8.973467822265624,29.424117647058825
2025-10-20T14:32:10.477864,21.419847328244273,-4.083969465648855,4.816793893129771,-0.06464344482421874,-2.3870190551757813,9.196128576660156,29.377058823529413
2025-10-20T14:32:10.499359,16.84732824427481,-3.7480916030534353,4.923664122137405,0.06464344482421874,-1.7788918334960937,10.759542260742187,29.51823529411765
2025-10-20T14:32:10.516196,9.0,-0.17557251908396945,5.0,-0.34715924072265625,-2.4756045166015626,8.441955053710936,29.424117647058825
2025-10-20T14:32:10.537962,2.450381679389313,-5.847328244274809,4.809160305343512,-0.6344634399414062,-4.173093493652344,8.142679846191406,29.377058823529413
2025-10-20T14:32:10.560398,1.702290076335878,-1.2061068702290076,3.4198473282442747,-1.3575123413085937,-2.887407202148437,8.604760766601562,29.471176470588237
2025-10-20T14:32:10.577241,-3.0381679389312977,-4.587786259541985,3.519083969465649,-0.2657563842773437,-3.0142998901367184,10.290278735351562,29.424117647058825
2025-10-20T14:32:10.599051,-9.709923664122137,-2.122137404580153,2.66412213740458,-0.316034619140625,-2.7174188842773437,9.399635717773437,29.424117647058825
2025-10-20T14:32:10.622052,-9.625954198473282,-0.9312977099236641,1.5572519083969465,-0.3950432739257812,-2.7198130859375,8.188169677734374,29.471176470588237
2025-10-20T14:32:10.638901,-7.5038167938931295,-1.4274809160305344,1.16793893129771,-0.354341845703125,-2.4971523315429685,9.334992272949219,29.424117647058825
2025-10-20T14:32:10.659549,-8.709923664122137,1.0763358778625953,0.8015267175572519,-0.6943184814453125,-3.6152445068359373,8.257601525878906,29.377058823529413
2025-10-20T14:32:10.682130,-5.129770992366412,-1.5877862595419847,0.4961832061068702,-0.35673604736328124,-3.6846763549804686,7.682993127441406,29.424117647058825
2025-10-20T14:32:10.699790,1.3587786259541985,-1.7938931297709924,-0.0916030534351145,-0.46686932373046874,-4.280832568359375,8.212111694335936,29.424117647058825
2025-10-20T14:32:10.719360,11.450381679389313,-3.0,-0.9007633587786259,-0.46686932373046874,-3.296815686035156,7.766790185546874,29.330000000000002
2025-10-20T14:32:10.741597,19.80916030534351,-4.977099236641221,-1.183206106870229,-0.18435352783203124,-2.422932080078125,9.0021982421875,29.377058823529413
2025-10-20T14:32:10.760104,19.259541984732824,-3.351145038167939,-0.5954198473282443,-0.01915361328125,-2.2002713256835937,9.53131680908203,29.377058823529413
2025-10-20T14:32:10.778752,15.213740458015268,-2.618320610687023,-0.12213740458015267,-0.16759411621093748,-2.0063409912109376,9.457096557617186,29.424117647058825
2025-10-20T14:32:10.800729,12.603053435114504,-2.404580152671756,0.26717557251908397,0.0909796630859375,-1.8315642700195311,9.37808790283203,29.471176470588237
2025-10-20T14:32:10.820073,8.358778625954198,-1.7938931297709924,0.9389312977099237,0.1580173095703125,-1.6711527587890624,9.935936889648437,29.471176470588237
2025-10-20T14:32:10.837848,1.8931297709923665,-0.7862595419847328,1.7404580152671756,0.239420166015625,-1.3958195678710936,10.160991845703125,29.424117647058825
2025-10-20T14:32:10.859552,-9.251908396946565,0.03816793893129771,2.931297709923664,0.38307226562499996,-1.4915876342773438,10.534487304687499,29.424117647058825
2025-10-20T14:32:10.880170,-20.702290076335878,0.8473282442748091,3.4656488549618323,0.3806780639648437,-1.9656395629882812,9.95987890625,29.471176470588237
2025-10-20T14:32:10.897022,-26.236641221374047,1.2442748091603053,3.5343511450381677,0.6153098266601562,-2.1547814941406247,9.605537060546874,29.51823529411765
2025-10-20T14:32:10.918946,-25.00763358778626,0.0916030534351145,3.267175572519084,-0.17238251953125,-2.269703173828125,9.026140258789061,29.377058823529413
2025-10-20T14:32:10.940828,-23.85496183206107,1.1068702290076335,2.480916030534351,-0.41419688720703124,-2.398990063476562,8.82981572265625,29.471176470588237
2025-10-20T14:32:10.957661,-22.16793893129771,4.312977099236641,1.702290076335878,-0.44532150878906246,-2.3032219970703123,8.817844714355468,29.51823529411765
2025-10-20T14:32:10.979676,-20.49618320610687,3.114503816793893,1.1068702290076335,-0.699106884765625,-2.674323254394531,8.123526232910155,29.424117647058825
2025-10-20T14:32:11.002812,-13.50381679389313,3.618320610687023,-0.11450381679389313,-0.316034619140625,-2.4875755249023435,7.967903124999999,29.424117647058825
2025-10-20T14:32:11.019658,-2.7938931297709924,2.427480916030534,-1.0534351145038168,-0.1771709228515625,-2.4779987182617185,8.224082702636718,29.471176470588237
2025-10-20T14:32:11.040813,2.9160305343511452,0.183206106870229,-1.6793893129770991,-0.055066638183593745,-2.070984436035156,8.767566479492187,29.51823529411765
2025-10-20T14:32:11.063648,5.862595419847328,-0.31297709923664124,-2.0610687022900764,0.04548983154296875,-2.0973206542968748,9.095572106933593,29.377058823529413
2025-10-20T14:32:11.080909,7.404580152671755,-2.2213740458015265,-2.2061068702290076,0.28490999755859375,-1.8100164550781248,9.074024291992187,29.377058823529413
2025-10-20T14:32:11.101014,8.98473282442748,-3.2748091603053435,-2.2977099236641223,0.24181436767578124,-1.1444283935546875,9.402029919433593,29.377058823529413
2025-10-20T14:32:11.123756,3.9236641221374047,-2.282442748091603,-1.8091603053435115,0.3447650390625,-1.3551181396484375,9.739612353515625,29.471176470588237
2025-10-20T14:32:11.142420,0.29770992366412213,-1.6106870229007633,-1.748091603053435,0.5003881469726562,-2.0063409912109376,9.617508068847656,29.377058823529413
2025-10-20T14:32:11.161038,-4.305343511450381,0.2824427480916031,-1.5954198473282444,-0.181959326171875,-3.3446997192382812,8.343792785644531,29.330000000000002
2025-10-20T14:32:11.183035,-5.343511450381679,1.633587786259542,-2.564885496183206,-0.11252747802734374,-3.347093920898437,8.473079675292968,29.51823529411765
2025-10-20T14:32:11.202486,-2.3740458015267176,0.015267175572519083,-3.236641221374046,-0.258573779296875,-2.5043349365234375,9.323021264648437,29.424117647058825
2025-10-20T14:32:11.220508,0.37404580152671757,0.07633587786259542,-3.6793893129770994,0.09337386474609374,-2.607285607910156,8.839392529296875,29.424117647058825
2025-10-20T14:32:11.242596,1.1908396946564885,1.6259541984732824,-4.549618320610687,0.04548983154296875,-2.530671154785156,8.734047656249999,29.424117647058825
2025-10-20T14:32:11.263282,1.7786259541984732,0.5801526717557252,-4.480916030534351,0.055066638183593745,-2.9664158569335934,8.686163623046875,29.377058823529413
2025-10-20T14:32:11.280112,5.183206106870229,-0.44274809160305345,-4.435114503816794,-0.2753331909179687,-2.4349030883789062,8.204929089355469,29.330000000000002
2025-10-20T14:32:11.301837,8.98473282442748,-1.7404580152671756,-4.229007633587786,-0.02154781494140625,-2.3487118286132813,8.413224633789062,29.424117647058825
2025-10-20T14:32:11.323371,11.633587786259541,-2.7251908396946565,-4.320610687022901,-0.229843359375,-2.96881005859375,8.84178673095703,29.471176470588237
2025-10-20T14:32:11.340193,15.374045801526718,-4.458015267175573,-4.114503816793893,0.040701428222656245,-2.4588451049804685,8.767566479492187,29.471176470588237
2025-10-20T14:32:11.362072,16.076335877862597,-4.374045801526718,-3.7404580152671754,0.37828386230468747,-2.612074011230469,8.729259252929687,29.377058823529413
2025-10-20T14:32:11.384482,16.12213740458015,-3.7022900763358777,-3.053435114503817,0.028730419921875,-2.683900061035156,8.767566479492187,29.471176470588237
2025-10-20T14:32:11.401308,15.717557251908397,-2.0916030534351147,-2.0076335877862594,0.12449848632812499,-2.4756045166015626,8.688557824707031,29.471176470588237
2025-10-20T14:32:11.422944,14.404580152671755,-3.885496183206107,-1.3893129770992367,0.22505495605468748,-2.7557261108398436,9.548076220703125,29.471176470588237
2025-10-20T14:32:11.446849,11.366412213740459,-2.6412213740458017,-0.9847328244274809,0.05746083984375,-2.2649147705078123,9.423577734375,29.471176470588237
2025-10-20T14:32:11.463662,6.282442748091603,-2.8091603053435112,-0.6259541984732825,-0.22505495605468748,-1.886630908203125,9.354145886230468,29.471176470588237
2025-10-20T14:32:11.484141,4.99236641221374,-1.549618320610687,-0.4198473282442748,-0.2657563842773437,-1.9776105712890624,9.880870251464843,29.377058823529413
2025-10-20T14:32:11.506781,-3.50381679389313,0.2900763358778626,-0.32061068702290074,-0.40222587890625,-2.5067291381835934,9.689334118652344,29.377058823529413
2025-10-20T14:32:11.524881,-4.6106870229007635,0.2824427480916031,-0.6564885496183206,-0.09816226806640624,-2.8514941772460936,7.682993127441406,29.330000000000002
2025-10-20T14:32:11.544030,-4.99236641221374,-0.7251908396946565,-0.5190839694656488,-0.1197100830078125,-2.1164742675781247,9.076418493652342,29.377058823529413
2025-10-20T14:32:11.566550,-4.801526717557252,-1.3206106870229009,-0.7175572519083969,-0.181959326171875,-3.1411925781249996,8.801085302734375,29.424117647058825
2025-10-20T14:32:11.585941,0.366412213740458,-2.16793893129771,-1.3587786259541985,0.0430956298828125,-2.7054478759765623,8.29351455078125,29.377058823529413
2025-10-20T14:32:11.603754,5.267175572519084,-3.053435114503817,-1.2213740458015268,-0.0526724365234375,-2.7940333374023436,8.63827958984375,29.377058823529413
2025-10-20T14:32:11.625834,9.083969465648854,-2.7251908396946565,-1.16793893129771,-0.05746083984375,-2.8706477905273435,8.614337573242187,29.330000000000002
2025-10-20T14:32:11.646517,14.221374045801527,-2.9618320610687023,-0.5419847328244275,-0.12689268798828124,-2.7964275390625,8.499415893554687,29.51823529411765
2025-10-20T14:32:11.663328,18.717557251908396,-3.16793893129771,-0.13740458015267176,-0.16998831787109375,-3.2513258544921873,8.789114294433594,29.424117647058825
2025-10-20T14:32:11.685239,23.671755725190838,-3.8625954198473282,-0.16793893129770993,-0.2920926025390625,-2.8945898071289062,8.650250598144531,29.424117647058825
2025-10-20T14:32:11.707234,30.908396946564885,-3.8702290076335877,0.2595419847328244,0.009576806640625,-2.7724855224609373,8.525752111816406,29.424117647058825
2025-10-20T14:32:11.724035,35.79389312977099,-3.2061068702290076,0.7480916030534351,0.229843359375,-2.1643583007812497,9.267954626464844,29.471176470588237
2025-10-20T14:32:11.745982,36.79389312977099,-2.9923664122137406,1.5190839694656488,0.565031591796875,-1.9512743530273435,9.267954626464844,29.56529411764706
2025-10-20T14:32:11.769177,36.343511450381676,-2.854961832061069,2.595419847328244,0.9313444458007812,-1.8363526733398436,9.64623848876953,29.471176470588237
2025-10-20T14:32:11.786001,33.47328244274809,-1.3511450381679388,3.519083969465649,0.8978256225585937,-1.3623007446289062,9.598354455566406,29.471176470588237
2025-10-20T14:32:11.807068,28.702290076335878,-0.9770992366412213,4.137404580152672,0.5746083984375,-0.3447650390625,10.24718310546875,29.424117647058825
2025-10-20T14:32:11.829865,15.473282442748092,-0.16030534351145037,4.038167938931298,0.967257470703125,0.622492431640625,11.02529864501953,29.377058823529413
2025-10-20T14:32:11.847106,3.6412213740458017,3.450381679389313,6.908396946564886,0.4955997436523437,-0.06703764648437499,9.80665,29.377058823529413
2025-10-20T14:32:11.867124,-10.557251908396946,3.282442748091603,7.793893129770993,0.2657563842773437,-0.16280571289062498,9.828197814941406,29.377058823529413
2025-10-20T14:32:11.889621,-20.68702290076336,3.213740458015267,8.442748091603054,0.00239420166015625,-0.258573779296875,10.35492218017578,29.377058823529413
2025-10-20T14:32:11.907776,-32.152671755725194,4.244274809160306,7.938931297709924,-0.105344873046875,-0.06943184814453125,10.158597644042969,29.424117647058825
2025-10-20T14:32:11.926990,-39.70992366412214,3.900763358778626,7.091603053435114,-0.5267243652343749,-0.09576806640624999,10.259154113769531,29.424117647058825
2025-10-20T14:32:11.949304,-47.44274809160305,6.900763358778626,5.923664122137405,-0.8930372192382812,-0.26336218261718747,9.291896643066405,29.471176470588237
2025-10-20T14:32:11.968283,-51.83969465648855,6.038167938931298,4.412213740458015,-0.86191259765625,-0.4165910888671875,8.825027319335938,29.28294117647059
2025-10-20T14:32:11.986562,-53.61068702290076,6.916030534351145,2.618320610687023,-0.7015010864257812,-0.03591302490234375,8.858546142578124,29.471176470588237
2025-10-20T14:32:12.008739,-50.99236641221374,5.3816793893129775,0.6793893129770993,-1.6328455322265625,-1.0031704956054688,6.880935571289062,29.471176470588237
