timestamp,gyro_x,gyro_y,gyro_z,acc_x,acc_y,acc_z,temp
2025-10-20T14:28:58.456842,-1.1068702290076335,0.916030534351145,-0.7633587786259542,0.3327940307617187,-0.15322890625,9.495403784179686,29.28294117647059
2025-10-20T14:28:58.478999,-1.4045801526717556,0.8549618320610687,-0.6946564885496184,0.737414111328125,0.2609679809570312,9.212887988281249,29.330000000000002
2025-10-20T14:28:58.496378,-0.7251908396946565,0.9618320610687023,-0.8778625954198473,0.42377369384765623,-0.031124621582031248,9.287108239746093,29.28294117647059
2025-10-20T14:28:58.518525,-1.0534351145038168,1.2061068702290076,-0.8320610687022901,0.5746083984375,0.2825157958984375,9.457096557617186,29.28294117647059
2025-10-20T14:28:58.539677,-1.3053435114503817,0.7099236641221374,-0.7709923664122137,0.7302315063476562,-0.13407529296874998,9.284714038085937,29.23588235294118
2025-10-20T14:28:58.556579,-0.9847328244274809,0.6793893129770993,-0.8244274809160306,0.5123591552734374,0.15562310791015624,9.287108239746093,29.28294117647059
2025-10-20T14:28:58.578675,-1.1526717557251909,0.8320610687022901,-0.732824427480916,0.5506663818359374,-0.07422025146484375,9.406818322753905,29.23588235294118
2025-10-20T14:28:58.601151,-1.282442748091603,0.9694656488549618,-1.0458015267175573,0.4477157104492187,0.076614453125,9.344569079589844,29.330000000000002
2025-10-20T14:28:58.618007,-1.5114503816793894,1.1374045801526718,-0.7786259541984732,0.5315127685546874,0.040701428222656245,9.282319836425781,29.28294117647059
2025-10-20T14:28:58.639813,-1.2213740458015268,0.816793893129771,-1.0076335877862594,0.45968671875,-0.1005564697265625,9.325415466308593,29.330000000000002
2025-10-20T14:28:58.662754,-1.16793893129771,0.4580152671755725,-0.9465648854961832,0.6009446166992187,0.09816226806640624,9.497797985839844,29.23588235294118
2025-10-20T14:28:58.679617,-1.1908396946564885,0.3435114503816794,-1.0076335877862594,0.4740519287109375,0.028730419921875,9.449913952636718,29.330000000000002
2025-10-20T14:28:58.701223,-0.8625954198473282,0.22137404580152673,-1.0381679389312977,0.5913678100585937,0.055066638183593745,9.282319836425781,29.377058823529413
2025-10-20T14:28:58.724237,-0.9770992366412213,0.2824427480916031,-0.9389312977099237,0.48123453369140623,-0.07900865478515624,9.437942944335937,29.330000000000002
2025-10-20T14:28:58.741076,-1.2671755725190839,0.25190839694656486,-0.916030534351145,0.584185205078125,0.16519991455078123,9.153032946777342,29.23588235294118
2025-10-20T14:28:58.761634,-0.816793893129771,0.16030534351145037,-0.9007633587786259,0.5315127685546874,-0.0430956298828125,9.406818322753905,29.377058823529413
2025-10-20T14:28:58.784504,-0.3511450381679389,-0.11450381679389313,-0.9083969465648855,0.5602431884765625,0.09816226806640624,9.227253198242186,29.424117647058825
2025-10-20T14:28:58.802196,-0.4122137404580153,-0.22900763358778625,-1.0076335877862594,0.4955997436523437,0.062249243164062495,9.392453112792968,29.330000000000002
2025-10-20T14:28:58.821873,-0.5343511450381679,1.8702290076335877,-1.0076335877862594,0.5674257934570313,-0.04548983154296875,9.354145886230468,29.28294117647059
2025-10-20T14:28:58.844165,-0.22137404580152673,-0.10687022900763359,-1.0916030534351144,0.5051765502929687,0.03591302490234375,9.34696328125,29.23588235294118
2025-10-20T14:28:58.862682,-1.916030534351145,-0.07633587786259542,-0.9618320610687023,0.5267243652343749,0.00239420166015625,9.402029919433593,29.330000000000002
2025-10-20T14:28:58.881363,0.11450381679389313,-0.11450381679389313,-0.9847328244274809,0.5434837768554687,0.062249243164062495,9.447519750976562,29.28294117647059
2025-10-20T14:28:58.903574,-1.9465648854961832,-0.05343511450381679,-1.0916030534351144,0.47165772705078124,0.12689268798828124,9.332598071289063,29.188823529411767
2025-10-20T14:28:58.923360,0.2595419847328244,-0.1450381679389313,-0.9236641221374046,0.47165772705078124,0.06943184814453125,9.433154541015625,29.23588235294118
2025-10-20T14:28:58.940733,0.07633587786259542,-0.10687022900763359,-0.9770992366412213,0.5147533569335937,0.086191259765625,9.344569079589844,29.330000000000002
2025-10-20T14:28:58.962470,1.9312977099236641,-0.05343511450381679,-0.8931297709923665,0.5363011718749999,0.13646949462890623,9.349357482910156,29.23588235294118
2025-10-20T14:28:58.983088,-0.32061068702290074,0.20610687022900764,-0.7251908396946565,0.565031591796875,0.08140285644531249,9.351751684570312,29.330000000000002
2025-10-20T14:28:58.999933,-0.5038167938931297,0.1984732824427481,-0.7786259541984732,0.4836287353515625,0.11013327636718749,9.356540087890625,29.330000000000002
2025-10-20T14:28:59.021691,-1.0916030534351144,0.12213740458015267,-0.8015267175572519,0.5434837768554687,0.26336218261718747,9.287108239746093,29.330000000000002
2025-10-20T14:28:59.043571,-1.7328244274809161,0.31297709923664124,-0.6106870229007634,0.507570751953125,0.1292868896484375,9.435548742675781,29.330000000000002
2025-10-20T14:28:59.060560,-2.1603053435114505,0.17557251908396945,-0.35877862595419846,0.5027823486328125,0.011971008300781249,9.320627062988281,29.23588235294118
2025-10-20T14:28:59.082615,-2.7251908396946565,0.26717557251908397,-0.4198473282442748,0.4908113403320312,0.086191259765625,9.418789331054686,29.330000000000002
2025-10-20T14:28:59.105470,-3.564885496183206,-0.16030534351145037,-0.10687022900763359,0.6344634399414062,0.28730419921875,9.425971936035156,29.23588235294118
2025-10-20T14:28:59.122383,-4.0534351145038165,0.3511450381679389,-0.2824427480916031,0.4261678955078125,0.09816226806640624,9.260772021484375,29.330000000000002
2025-10-20T14:28:59.143912,-4.694656488549619,0.5419847328244275,-0.2595419847328244,0.4572925170898437,-0.040701428222656245,9.18655177001953,29.28294117647059
2025-10-20T14:28:59.167026,-5.015267175572519,0.2366412213740458,1.9236641221374047,0.6871358764648438,-0.0526724365234375,9.126696728515624,29.330000000000002
2025-10-20T14:28:59.184137,-5.541984732824427,0.24427480916030533,0.03816793893129771,0.5195417602539062,0.15322890625,9.265560424804686,29.28294117647059
2025-10-20T14:28:59.204789,-5.396946564885496,-1.9236641221374047,-0.06870229007633588,0.5195417602539062,0.062249243164062495,9.313444458007812,29.28294117647059
2025-10-20T14:28:59.227386,-5.633587786259542,-0.12213740458015267,-1.9312977099236641,0.4644751220703125,-0.1388636962890625,9.054870678710937,29.23588235294118
2025-10-20T14:28:59.245116,-5.122137404580153,0.44274809160305345,-0.15267175572519084,0.4644751220703125,0.009576806640625,8.980650427246093,29.28294117647059
2025-10-20T14:28:59.264736,-4.175572519083969,-0.5114503816793893,-0.37404580152671757,0.5602431884765625,-0.34715924072265625,9.145850341796875,29.330000000000002
2025-10-20T14:28:59.286996,-2.49618320610687,-0.45038167938931295,-0.6183206106870229,0.3495534423828125,0.2753331909179687,8.985438830566405,29.188823529411767
2025-10-20T14:28:59.305533,-0.8625954198473282,-0.061068702290076333,-0.9770992366412213,0.2561795776367187,-0.5195417602539062,9.153032946777342,29.28294117647059
2025-10-20T14:28:59.324252,-0.6641221374045801,-0.4732824427480916,-1.0687022900763359,0.6057330200195312,-0.13168109130859373,9.17458076171875,29.377058823529413
2025-10-20T14:28:59.346480,-0.7404580152671756,-0.21374045801526717,-1.16793893129771,0.59376201171875,0.055066638183593745,9.244012609863281,29.28294117647059
2025-10-20T14:28:59.366271,-0.5954198473282443,-0.2900763358778626,-1.083969465648855,0.488417138671875,0.1149216796875,9.17458076171875,29.377058823529413
2025-10-20T14:28:59.386248,-1.3206106870229009,-0.10687022900763359,-1.0305343511450382,0.47884033203125,0.040701428222656245,9.248801013183593,29.377058823529413
2025-10-20T14:28:59.408360,-1.8702290076335877,-0.06870229007633588,-1.0687022900763359,0.737414111328125,0.2657563842773437,9.215282189941405,29.188823529411767
2025-10-20T14:28:59.430700,-2.16793893129771,0.7786259541984732,-0.9541984732824428,0.47884033203125,0.12689268798828124,9.471461767578125,29.23588235294118
2025-10-20T14:28:59.447591,-2.4122137404580153,0.5725190839694656,-0.8854961832061069,0.6536170532226562,0.08140285644531249,9.519345800781249,29.471176470588237
2025-10-20T14:28:59.469212,-3.183206106870229,0.9007633587786259,-0.8015267175572519,0.6272808349609375,0.09576806640624999,9.337386474609374,29.330000000000002
2025-10-20T14:28:59.492436,-2.854961832061069,0.7633587786259542,-0.9465648854961832,0.3591302490234375,0.0430956298828125,9.428366137695312,29.330000000000002
2025-10-20T14:28:59.509260,-2.0,1.2213740458015268,-0.9007633587786259,0.39743747558593745,0.2154781494140625,9.351751684570312,29.330000000000002
2025-10-20T14:28:59.529632,-2.3206106870229006,1.3129770992366412,-1.0076335877862594,0.51714755859375,0.1197100830078125,9.311050256347656,29.330000000000002
2025-10-20T14:28:59.552536,-2.351145038167939,1.366412213740458,-1.0305343511450382,0.47165772705078124,0.17238251953125,9.37808790283203,29.28294117647059
2025-10-20T14:28:59.570611,-2.1297709923664123,1.3282442748091603,-0.9465648854961832,0.47644613037109373,0.23223756103515625,9.418789331054686,29.330000000000002
2025-10-20T14:28:59.589937,-2.145038167938931,1.2213740458015268,-0.7862595419847328,0.5339069702148437,0.13646949462890623,9.411606726074218,29.330000000000002
2025-10-20T14:28:59.612340,-2.572519083969466,1.2366412213740459,-0.6946564885496184,0.5722141967773438,0.25139117431640623,9.251195214843749,29.330000000000002
2025-10-20T14:28:59.631690,-2.5419847328244276,1.2595419847328244,-0.816793893129771,0.3902548706054687,0.06943184814453125,9.26316622314453,29.330000000000002
2025-10-20T14:28:59.649527,-2.3435114503816794,1.1374045801526718,-0.7022900763358778,0.47165772705078124,0.1771709228515625,9.414000927734374,29.28294117647059
2025-10-20T14:28:59.671416,-0.022900763358778626,1.2290076335877862,-0.732824427480916,0.51714755859375,0.04548983154296875,9.5384994140625,29.28294117647059
2025-10-20T14:28:59.692029,-0.04580152671755725,1.2595419847328244,-0.816793893129771,0.6727706665039062,0.2537853759765625,9.612719665527344,29.23588235294118
2025-10-20T14:28:59.708853,-1.916030534351145,1.0076335877862594,-0.6641221374045801,0.4860229370117187,-0.00718260498046875,9.34696328125,29.330000000000002
2025-10-20T14:28:59.730510,-1.6259541984732824,0.816793893129771,-0.7099236641221374,0.584185205078125,0.12210428466796874,9.220070593261719,29.330000000000002
2025-10-20T14:28:59.751967,-1.5877862595419847,0.7709923664122137,-0.44274809160305345,0.5267243652343749,0.1292868896484375,9.49300958251953,29.23588235294118
2025-10-20T14:28:59.768856,-1.5419847328244274,0.5954198473282443,-0.6412213740458015,0.5674257934570313,0.05027823486328125,9.26316622314453,29.330000000000002
2025-10-20T14:28:59.790683,-1.0916030534351144,0.6793893129770993,-0.4198473282442748,0.49799394531249996,0.016759411621093748,9.294290844726563,29.28294117647059
2025-10-20T14:28:59.813399,-0.8702290076335878,0.5801526717557252,-0.48854961832061067,0.5339069702148437,-0.009576806640625,9.3852705078125,29.330000000000002
2025-10-20T14:28:59.830253,-0.4580152671755725,0.6870229007633588,-0.3816793893129771,0.4836287353515625,0.14604630126953125,9.380482104492186,29.330000000000002
2025-10-20T14:28:59.851896,-0.22137404580152673,0.48091603053435117,-0.5419847328244275,0.7541735229492187,-0.02633621826171875,9.457096557617186,29.330000000000002
2025-10-20T14:28:59.874906,-0.10687022900763359,0.5954198473282443,-0.24427480916030533,0.4740519287109375,0.011971008300781249,9.253589416503905,29.330000000000002
2025-10-20T14:28:59.891752,0.183206106870229,0.6946564885496184,-0.29770992366412213,0.46686932373046874,0.02633621826171875,9.418789331054686,29.28294117647059
2025-10-20T14:28:59.912320,0.22137404580152673,0.03816793893129771,-0.2900763358778626,0.5770026000976562,0.23223756103515625,9.53131680908203,29.28294117647059
2025-10-20T14:28:59.935263,0.7480916030534351,0.8473282442748091,-0.29770992366412213,0.29927520751953124,-0.13407529296874998,9.045293872070312,29.28294117647059
2025-10-20T14:28:59.952958,0.6106870229007634,-0.061068702290076333,-0.37404580152671757,0.6943184814453125,0.0526724365234375,9.392453112792968,29.28294117647059
2025-10-20T14:28:59.972670,0.5725190839694656,0.4351145038167939,-0.3816793893129771,0.3399766357421875,0.2346317626953125,9.363722692871093,29.23588235294118
2025-10-20T14:28:59.995027,0.183206106870229,0.40458015267175573,-0.366412213740458,0.39743747558593745,0.258573779296875,9.284714038085937,29.330000000000002
2025-10-20T14:29:00.013580,0.17557251908396945,-0.030534351145038167,-0.22137404580152673,0.7038952880859375,-0.01915361328125,9.363722692871093,29.23588235294118
2025-10-20T14:29:00.032526,0.022900763358778626,-0.07633587786259542,-0.40458015267175573,0.3136404174804687,0.2154781494140625,9.356540087890625,29.330000000000002
2025-10-20T14:29:00.055068,-0.5343511450381679,0.03816793893129771,-0.5419847328244275,0.59376201171875,0.06943184814453125,9.267954626464844,29.23588235294118
2025-10-20T14:29:00.074593,-1.1755725190839694,0.09923664122137404,-0.3282442748091603,0.5027823486328125,0.30406361083984373,9.342174877929686,29.377058823529413
2025-10-20T14:29:00.092764,-1.5725190839694656,-0.04580152671755725,-0.22900763358778625,0.6105214233398437,0.1771709228515625,9.370905297851563,29.330000000000002
2025-10-20T14:29:00.114838,-2.2595419847328246,-0.16793893129770993,-0.25190839694656486,0.51714755859375,0.18435352783203124,9.447519750976562,29.377058823529413
2025-10-20T14:29:00.135176,-3.030534351145038,-0.12213740458015267,-0.12213740458015267,0.5386953735351562,0.27293898925781246,9.313444458007812,29.330000000000002
2025-10-20T14:29:00.152366,-3.0839694656488548,-0.25190839694656486,-0.22137404580152673,0.5147533569335937,0.239420166015625,9.356540087890625,29.188823529411767
2025-10-20T14:29:00.174421,-3.549618320610687,-0.12213740458015267,-0.11450381679389313,0.6057330200195312,0.23702596435546874,9.488221179199218,29.330000000000002
2025-10-20T14:29:00.195691,-4.129770992366412,-0.16030534351145037,-0.06870229007633588,0.5985504150390625,0.13646949462890623,9.330203869628905,29.330000000000002
2025-10-20T14:29:00.212510,-4.374045801526718,-0.24427480916030533,-1.9312977099236641,0.6272808349609375,0.08858546142578125,9.330203869628905,29.28294117647059
2025-10-20T14:29:00.234388,-4.3816793893129775,-0.7480916030534351,1.9236641221374047,0.7541735229492187,0.1484405029296875,9.270348828125,29.23588235294118
2025-10-20T14:29:00.256410,-4.297709923664122,-0.8931297709923665,-0.17557251908396945,0.4644751220703125,0.01915361328125,9.466673364257812,29.23588235294118
2025-10-20T14:29:00.273234,-4.450381679389313,-0.9770992366412213,0.030534351145038167,0.6057330200195312,0.12210428466796874,9.409212524414063,29.28294117647059
2025-10-20T14:29:00.295207,-4.641221374045801,-0.9694656488549618,-1.8396946564885497,0.5817910034179687,0.1149216796875,9.272743029785156,29.28294117647059
2025-10-20T14:29:00.318463,-4.33587786259542,-0.7709923664122137,1.8702290076335877,0.3184288208007812,0.05027823486328125,9.469067565917967,29.28294117647059
2025-10-20T14:29:00.335282,-1.9618320610687023,-0.6183206106870229,-0.015267175572519083,0.39983167724609375,0.16519991455078123,9.244012609863281,29.424117647058825
2025-10-20T14:29:00.356381,-3.4580152671755724,-1.1526717557251909,0.03816793893129771,0.507570751953125,-0.19393033447265623,9.179369165039063,29.28294117647059
2025-10-20T14:29:00.379168,-2.4427480916030535,-1.2442748091603053,-0.2366412213740458,0.4572925170898437,-0.0047884033203125,9.260772021484375,29.377058823529413
2025-10-20T14:29:00.396417,-1.5877862595419847,-0.8854961832061069,-0.25190839694656486,0.354341845703125,0.062249243164062495,9.334992272949219,29.377058823529413
2025-10-20T14:29:00.416990,-1.282442748091603,-1.1755725190839694,-0.5648854961832062,0.4644751220703125,0.28490999755859375,9.306261853027344,29.330000000000002
2025-10-20T14:29:00.439844,-1.1450381679389312,-1.0305343511450382,-0.48091603053435117,0.5530605834960938,0.2537853759765625,9.3852705078125,29.377058823529413
2025-10-20T14:29:00.457945,-1.450381679389313,-1.1603053435114503,-0.40458015267175573,0.4836287353515625,0.086191259765625,9.502586389160156,29.330000000000002
2025-10-20T14:29:00.477034,-1.7938931297709924,-0.8320610687022901,-0.33587786259541985,0.63206923828125,0.0143652099609375,9.246406811523437,29.28294117647059
2025-10-20T14:29:00.499439,-2.3282442748091605,-0.6259541984732825,-0.2900763358778626,0.5722141967773438,0.13168109130859373,9.318232861328125,29.23588235294118
2025-10-20T14:29:00.518801,-2.5801526717557253,-0.4351145038167939,-0.5343511450381679,0.5770026000976562,0.12689268798828124,9.323021264648437,29.28294117647059
2025-10-20T14:29:00.536759,-2.404580152671756,-0.11450381679389313,-0.2900763358778626,0.5770026000976562,0.04548983154296875,9.299079248046874,29.377058823529413
2025-10-20T14:29:00.558670,-1.6946564885496183,-0.030534351145038167,-0.4580152671755725,0.51714755859375,0.17956512451171874,9.332598071289063,29.377058823529413
2025-10-20T14:29:00.581980,-1.3893129770992367,-0.13740458015267176,-0.5572519083969466,0.5817910034179687,-0.105344873046875,9.260772021484375,29.330000000000002
2025-10-20T14:29:00.598790,-1.0610687022900764,0.06870229007633588,-0.6870229007633588,0.40940848388671874,0.055066638183593745,9.212887988281249,29.330000000000002
2025-10-20T14:29:00.620507,-0.8244274809160306,0.33587786259541985,-0.3969465648854962,0.7158662963867187,0.09576806640624999,9.334992272949219,29.330000000000002
2025-10-20T14:29:00.643550,-0.8015267175572519,0.48091603053435117,-0.549618320610687,0.3902548706054687,0.02154781494140625,9.229647399902344,29.28294117647059
2025-10-20T14:29:00.660347,-0.9465648854961832,0.6564885496183206,-0.33587786259541985,0.6177040283203125,0.21308394775390624,9.234435803222656,29.377058823529413
2025-10-20T14:29:00.681212,-0.6335877862595419,1.16793893129771,-0.3816793893129771,0.5458779785156249,-0.076614453125,9.382876306152344,29.330000000000002
2025-10-20T14:29:00.703858,-0.8778625954198473,0.916030534351145,-0.22900763358778625,0.6488286499023437,0.11731588134765625,9.26316622314453,29.188823529411767
2025-10-20T14:29:00.721083,-0.8854961832061069,1.366412213740458,-0.29770992366412213,0.4860229370117187,0.08140285644531249,9.241618408203124,29.28294117647059
2025-10-20T14:29:00.740895,-0.916030534351145,1.3358778625954197,-0.16030534351145037,0.5746083984375,0.11252747802734374,9.351751684570312,29.377058823529413
2025-10-20T14:29:00.763222,-1.2748091603053435,1.4351145038167938,-0.2748091603053435,0.5267243652343749,0.0718260498046875,9.497797985839844,29.23588235294118
2025-10-20T14:29:00.781284,-1.3358778625954197,1.8931297709923665,-0.25190839694656486,0.5722141967773438,0.086191259765625,9.320627062988281,29.28294117647059
2025-10-20T14:29:00.800250,-1.3969465648854962,1.7938931297709924,-1.9541984732824427,0.5674257934570313,0.12449848632812499,9.222464794921875,29.330000000000002
2025-10-20T14:29:00.822425,-1.465648854961832,0.05343511450381679,0.1450381679389313,0.5865794067382812,0.06943184814453125,9.270348828125,29.330000000000002
2025-10-20T14:29:00.841770,-1.5114503816793894,1.6946564885496183,0.16030534351145037,0.4213794921875,0.15322890625,9.241618408203124,29.377058823529413
2025-10-20T14:29:00.859489,-1.4198473282442747,1.8854961832061068,0.03816793893129771,0.5746083984375,0.19632453613281248,9.368511096191405,29.23588235294118
2025-10-20T14:29:00.881095,-1.3740458015267176,1.7786259541984732,-1.9083969465648856,0.5626373901367188,0.1005564697265625,9.394847314453125,29.330000000000002
2025-10-20T14:29:00.901682,-1.3435114503816794,1.8549618320610688,0.0916030534351145,0.39743747558593745,-0.0143652099609375,9.368511096191405,29.28294117647059
2025-10-20T14:29:00.918474,-1.3969465648854962,1.8549618320610688,0.07633587786259542,0.5506663818359374,0.011971008300781249,9.248801013183593,29.28294117647059
2025-10-20T14:29:00.940150,-1.4427480916030535,1.381679389312977,0.030534351145038167,0.4955997436523437,0.028730419921875,9.229647399902344,29.330000000000002
2025-10-20T14:29:00.962008,-1.3129770992366412,1.5954198473282444,0.1297709923664122,0.37828386230468747,0.12449848632812499,9.267954626464844,29.377058823529413
2025-10-20T14:29:00.978801,-1.1603053435114503,1.2442748091603053,0.1297709923664122,0.5195417602539062,0.05746083984375,9.299079248046874,29.23588235294118
2025-10-20T14:29:01.000478,-1.0381679389312977,1.297709923664122,0.09923664122137404,0.4860229370117187,0.07422025146484375,9.277531433105468,29.28294117647059
2025-10-20T14:29:01.023498,-0.9083969465648855,1.3053435114503817,0.17557251908396945,0.3136404174804687,0.13407529296874998,9.392453112792968,29.330000000000002
2025-10-20T14:29:01.040289,-1.0381679389312977,0.732824427480916,0.21374045801526717,0.4285620971679687,0.0,9.404424121093749,29.330000000000002
2025-10-20T14:29:01.061197,-1.3129770992366412,1.16793893129771,0.05343511450381679,0.4740519287109375,0.10295067138671875,9.488221179199218,29.28294117647059
2025-10-20T14:29:01.083829,-1.5038167938931297,0.5190839694656488,-1.816793893129771,0.507570751953125,0.031124621582031248,9.435548742675781,29.28294117647059
2025-10-20T14:29:01.101102,-1.618320610687023,0.8931297709923665,0.08396946564885496,0.4740519287109375,0.062249243164062495,9.303867651367186,29.28294117647059
2025-10-20T14:29:01.120919,-1.4809160305343512,0.9083969465648855,0.13740458015267176,0.488417138671875,0.1388636962890625,9.255983618164063,29.188823529411767
2025-10-20T14:29:01.143230,-3.8625954198473282,0.35877862595419846,-1.8702290076335877,0.47165772705078124,0.2753331909179687,9.430760339355468,29.23588235294118
2025-10-20T14:29:01.161291,-1.984732824427481,0.2900763358778626,0.03816793893129771,0.4070142822265625,0.14604630126953125,9.430760339355468,29.377058823529413
2025-10-20T14:29:01.180263,-1.9083969465648856,0.44274809160305345,-0.1297709923664122,0.5267243652343749,-0.05746083984375,9.26316622314453,29.330000000000002
2025-10-20T14:29:01.202260,-2.1603053435114505,0.10687022900763359,-0.20610687022900764,0.4836287353515625,0.10773907470703124,9.251195214843749,29.188823529411767
2025-10-20T14:29:01.221639,-2.045801526717557,0.015267175572519083,0.04580152671755725,0.3327940307617187,0.05985504150390625,9.294290844726563,29.23588235294118
2025-10-20T14:29:01.239361,-0.15267175572519084,1.8931297709923665,0.1297709923664122,0.5913678100585937,0.12689268798828124,9.287108239746093,29.28294117647059
2025-10-20T14:29:01.260968,-2.2900763358778624,-0.5572519083969466,0.1297709923664122,0.5315127685546874,0.0526724365234375,9.311050256347656,29.23588235294118
2025-10-20T14:29:01.281556,-2.2977099236641223,-0.6259541984732825,1.8931297709923665,0.5746083984375,0.0047884033203125,9.466673364257812,29.28294117647059
2025-10-20T14:29:01.298335,-2.2748091603053435,-0.549618320610687,0.11450381679389313,0.4525041137695312,0.047884033203124995,9.220070593261719,29.28294117647059
2025-10-20T14:29:01.320018,-2.5419847328244276,-0.44274809160305345,0.16793893129770993,0.4477157104492187,0.15562310791015624,9.320627062988281,29.377058823529413
2025-10-20T14:29:01.341875,-2.5877862595419847,-0.9465648854961832,0.0,0.5746083984375,0.028730419921875,9.370905297851563,29.23588235294118
2025-10-20T14:29:01.358659,-2.4885496183206106,-1.5114503816793894,0.1984732824427481,0.699106884765625,-0.01915361328125,9.397241516113281,29.424117647058825
2025-10-20T14:29:01.380408,-2.5877862595419847,-1.3053435114503817,0.0916030534351145,0.5339069702148437,0.28969840087890625,9.528922607421874,29.23588235294118
2025-10-20T14:29:01.403434,-2.549618320610687,-1.3435114503816794,0.25190839694656486,0.5746083984375,-0.047884033203124995,9.387664709472656,29.28294117647059
2025-10-20T14:29:01.420228,-2.236641221374046,-1.1145038167938932,1.9465648854961832,0.6057330200195312,-0.00718260498046875,9.275137231445312,29.377058823529413
2025-10-20T14:29:01.441174,-2.6106870229007635,-1.3969465648854962,0.022900763358778626,0.5123591552734374,-0.1149216796875,9.363722692871093,29.377058823529413
2025-10-20T14:29:01.463793,-2.2290076335877864,-3.7557251908396947,1.900763358778626,0.5315127685546874,0.2537853759765625,9.287108239746093,29.23588235294118
2025-10-20T14:29:01.481036,-2.145038167938931,-1.0076335877862594,-0.03816793893129771,0.3136404174804687,0.0526724365234375,9.22485899658203,29.330000000000002
2025-10-20T14:29:01.500995,-1.9770992366412214,-1.2900763358778626,1.900763358778626,0.46208092041015625,-0.06943184814453125,9.370905297851563,29.23588235294118
2025-10-20T14:29:01.523310,-2.1603053435114505,-1.1297709923664123,1.8625954198473282,0.47884033203125,-0.040701428222656245,9.267954626464844,29.28294117647059
2025-10-20T14:29:01.541388,-1.5954198473282444,-1.251908396946565,-0.2824427480916031,0.55545478515625,0.1580173095703125,9.404424121093749,29.28294117647059
2025-10-20T14:29:01.560465,-1.4885496183206106,-1.2595419847328244,-0.20610687022900764,0.5243301635742187,0.07422025146484375,9.287108239746093,29.424117647058825
2025-10-20T14:29:01.582599,-1.3893129770992367,-1.3282442748091603,-0.10687022900763359,0.5291185668945312,0.062249243164062495,9.244012609863281,29.377058823529413
2025-10-20T14:29:01.601516,-1.7709923664122138,-1.015267175572519,-0.1450381679389313,0.5530605834960938,0.1771709228515625,9.406818322753905,29.28294117647059
2025-10-20T14:29:01.620721,-1.8702290076335877,-0.9541984732824428,0.04580152671755725,0.5003881469726562,0.01915361328125,9.325415466308593,29.330000000000002
2025-10-20T14:29:01.643147,-2.015267175572519,-0.8473282442748091,-0.2595419847328244,0.5099649536132812,0.07900865478515624,9.236830004882812,29.330000000000002
2025-10-20T14:29:01.662499,-2.053435114503817,-0.9923664122137404,-0.19083969465648856,0.6105214233398437,-0.12210428466796874,9.145850341796875,29.377058823529413
2025-10-20T14:29:01.680302,-2.3053435114503817,-0.2748091603053435,0.022900763358778626,0.35673604736328124,0.11252747802734374,9.217676391601563,29.28294117647059
2025-10-20T14:29:01.702227,-2.2519083969465647,-0.648854961832061,-0.1297709923664122,0.7158662963867187,0.076614453125,9.279925634765624,29.28294117647059
2025-10-20T14:29:01.722848,-0.007633587786259542,1.916030534351145,-0.13740458015267176,0.33758243408203126,0.040701428222656245,9.162609753417968,29.23588235294118
2025-10-20T14:29:01.739679,-2.0916030534351147,-0.4122137404580153,-0.0916030534351145,0.5410895751953124,0.17956512451171874,9.536105212402344,29.424117647058825
2025-10-20T14:29:01.761425,-1.984732824427481,1.8778625954198473,0.03816793893129771,0.6200982299804687,0.062249243164062495,9.332598071289063,29.28294117647059
2025-10-20T14:29:01.783317,-2.0381679389312977,-0.08396946564885496,0.05343511450381679,0.4836287353515625,0.05746083984375,9.22485899658203,29.23588235294118
2025-10-20T14:29:01.800141,-1.2900763358778626,0.366412213740458,1.9236641221374047,0.5147533569335937,-0.02633621826171875,9.095572106933593,29.330000000000002
2025-10-20T14:29:01.821903,-0.6870229007633588,0.21374045801526717,-0.3282442748091603,0.45489831542968745,0.02633621826171875,9.344569079589844,29.28294117647059
2025-10-20T14:29:01.844961,-0.5725190839694656,0.48091603053435117,-0.5038167938931297,0.5243301635742187,0.00239420166015625,9.253589416503905,29.23588235294118
2025-10-20T14:29:01.862072,-1.381679389312977,0.6412213740458015,-0.4198473282442748,0.5410895751953124,0.09337386474609374,9.370905297851563,29.28294117647059
2025-10-20T14:29:01.882720,-1.6641221374045803,0.8778625954198473,-0.26717557251908397,0.565031591796875,0.047884033203124995,9.368511096191405,29.23588235294118
2025-10-20T14:29:01.905587,-2.351145038167939,0.7480916030534351,-0.2748091603053435,0.47644613037109373,0.2442085693359375,9.411606726074218,29.28294117647059
2025-10-20T14:29:01.923689,-2.8244274809160306,0.7404580152671756,-0.1297709923664122,0.5913678100585937,0.23223756103515625,9.476250170898437,29.23588235294118
2025-10-20T14:29:01.942789,-3.2061068702290076,1.916030534351145,-0.31297709923664124,0.47884033203125,-0.08858546142578125,9.296685046386719,29.09470588235294
2025-10-20T14:29:01.965087,-2.7786259541984735,0.8702290076335878,-0.22900763358778625,0.7350199096679687,-0.07900865478515624,9.521740002441407,29.28294117647059
2025-10-20T14:29:01.984451,-1.5877862595419847,1.1450381679389312,-0.4351145038167939,0.4285620971679687,-0.21787235107421873,9.277531433105468,29.23588235294118
2025-10-20T14:29:02.002279,-1.3893129770992367,0.07633587786259542,-0.5419847328244275,0.373495458984375,-0.06943184814453125,9.165003955078124,29.28294117647059
2025-10-20T14:29:02.024358,-1.2290076335877862,1.5190839694656488,-0.7251908396946565,0.5722141967773438,0.09337386474609374,9.265560424804686,29.330000000000002
2025-10-20T14:29:02.044969,-0.732824427480916,1.8702290076335877,-0.6870229007633588,0.5626373901367188,0.2561795776367187,9.476250170898437,29.28294117647059
2025-10-20T14:29:02.061790,-0.8473282442748091,3.877862595419847,-0.549618320610687,0.49320554199218747,0.13407529296874998,9.485826977539062,29.377058823529413
2025-10-20T14:29:02.083537,-1.183206106870229,2.1068702290076335,-0.42748091603053434,0.6607996582031249,0.09816226806640624,9.366116894531249,29.330000000000002
2025-10-20T14:29:02.105418,-1.099236641221374,1.6106870229007633,-0.44274809160305345,0.5626373901367188,0.11252747802734374,9.37808790283203,29.28294117647059
2025-10-20T14:29:02.122278,-1.4961832061068703,2.0229007633587788,-0.29770992366412213,0.5315127685546874,0.14604630126953125,9.069235888671875,29.330000000000002
2025-10-20T14:29:02.144053,-1.6106870229007633,2.1908396946564888,-0.366412213740458,0.5722141967773438,-0.0143652099609375,9.193734375,29.23588235294118
2025-10-20T14:29:02.167088,-1.8091603053435115,0.09923664122137404,-0.2366412213740458,0.5386953735351562,0.12210428466796874,9.344569079589844,29.28294117647059
2025-10-20T14:29:02.183910,-1.6717557251908397,1.7633587786259541,-0.22900763358778625,0.5458779785156249,-0.02633621826171875,9.287108239746093,29.28294117647059
2025-10-20T14:29:02.204941,-1.6564885496183206,1.633587786259542,-0.2366412213740458,0.565031591796875,0.09337386474609374,9.433154541015625,29.330000000000002
2025-10-20T14:29:02.227987,-1.8854961832061068,1.633587786259542,-0.32061068702290074,0.59376201171875,0.08140285644531249,9.265560424804686,29.28294117647059
2025-10-20T14:29:02.245256,-1.7404580152671756,1.3435114503816794,-0.25190839694656486,0.5339069702148437,0.10773907470703124,9.054870678710937,29.23588235294118
2025-10-20T14:29:02.265452,-1.5572519083969465,1.2671755725190839,-0.20610687022900764,0.5123591552734374,0.14125789794921875,9.337386474609374,29.424117647058825
2025-10-20T14:29:02.288096,-1.8702290076335877,0.9312977099236641,-0.3435114503816794,0.4740519287109375,0.0047884033203125,9.282319836425781,29.330000000000002
2025-10-20T14:29:02.306607,-1.8244274809160306,0.9389312977099237,-0.22900763358778625,0.5003881469726562,0.1149216796875,9.241618408203124,29.23588235294118
2025-10-20T14:29:02.325327,-2.0076335877862594,0.5419847328244275,-0.366412213740458,0.6009446166992187,0.06464344482421874,9.2320416015625,29.330000000000002
2025-10-20T14:29:02.347500,-2.0,0.09923664122137404,-0.44274809160305345,0.5698199951171875,0.2705447875976562,9.366116894531249,29.28294117647059
2025-10-20T14:29:02.367275,-2.0763358778625953,-0.2824427480916031,-0.3282442748091603,0.49799394531249996,0.0909796630859375,9.3086560546875,29.330000000000002
2025-10-20T14:29:02.384656,-2.145038167938931,1.9083969465648856,-0.2900763358778626,0.5339069702148437,0.13407529296874998,9.203311181640624,29.28294117647059
2025-10-20T14:29:02.406509,-1.8396946564885497,-0.5114503816793893,-0.29770992366412213,0.32082302246093747,0.15562310791015624,9.251195214843749,29.424117647058825
2025-10-20T14:29:02.427652,-1.702290076335878,-0.8473282442748091,-0.2366412213740458,0.4381389038085937,0.04548983154296875,9.22485899658203,29.28294117647059
2025-10-20T14:29:02.444515,-1.8015267175572518,-0.6335877862595419,-0.3435114503816794,0.5793968017578125,0.17956512451171874,9.375693701171874,29.330000000000002
2025-10-20T14:29:02.466442,-1.0458015267175573,-1.4427480916030535,-0.26717557251908397,0.7206546997070312,-0.16041151123046873,9.370905297851563,29.23588235294118
2025-10-20T14:29:02.488778,0.11450381679389313,-1.7099236641221374,-0.5801526717557252,0.4429273071289062,-0.07900865478515624,9.315838659667968,29.28294117647059
2025-10-20T14:29:02.505654,-1.9541984732824427,-1.4961832061068703,-0.42748091603053434,0.4572925170898437,0.06943184814453125,9.497797985839844,29.23588235294118
2025-10-20T14:29:02.527477,0.19083969465648856,-0.9312977099236641,-0.7175572519083969,0.70868369140625,0.3687070556640625,9.076418493652342,29.23588235294118
2025-10-20T14:29:02.550748,-0.4122137404580153,-4.229007633587786,-0.1450381679389313,0.8212111694335937,-0.17477672119140625,9.545682019042967,29.28294117647059
2025-10-20T14:29:02.567579,-1.7938931297709924,-1.7404580152671756,-0.42748091603053434,0.51714755859375,-0.033518823242187495,9.832986218261718,29.28294117647059
2025-10-20T14:29:02.587931,-2.16793893129771,-0.9007633587786259,1.8931297709923665,0.07422025146484375,0.7637503295898437,9.303867651367186,29.330000000000002
2025-10-20T14:29:02.611530,-2.5877862595419847,-1.4885496183206106,0.1450381679389313,0.3591302490234375,-0.16759411621093748,9.574412438964844,29.330000000000002
2025-10-20T14:29:02.630065,-2.564885496183206,-1.4122137404580153,0.3511450381679389,0.49320554199218747,0.15083470458984374,9.572018237304688,29.330000000000002
2025-10-20T14:29:02.649942,-5.809160305343512,0.015267175572519083,0.3969465648854962,0.59376201171875,0.04548983154296875,9.34696328125,29.377058823529413
2025-10-20T14:29:02.672542,-4.541984732824427,0.7404580152671756,0.3511450381679389,0.469263525390625,0.25139117431640623,9.315838659667968,29.330000000000002
2025-10-20T14:29:02.691043,-4.488549618320611,0.2748091603053435,0.5648854961832062,0.5195417602539062,-0.28490999755859375,9.282319836425781,29.424117647058825
2025-10-20T14:29:02.709626,-4.519083969465649,0.732824427480916,0.5038167938931297,0.5985504150390625,0.39983167724609375,9.332598071289063,29.28294117647059
2025-10-20T14:29:02.731864,-2.6030534351145036,0.07633587786259542,0.8244274809160306,0.4333505004882812,-0.18914193115234373,9.121908325195312,29.377058823529413
2025-10-20T14:29:02.751639,-3.4885496183206106,1.9465648854961832,0.6793893129770993,0.36391865234375,0.02154781494140625,9.363722692871093,29.28294117647059
2025-10-20T14:29:02.769032,-2.885496183206107,3.3587786259541983,0.46564885496183206,0.32561142578124996,0.09337386474609374,9.404424121093749,29.23588235294118
2025-10-20T14:29:02.790810,-1.9236641221374047,1.083969465648855,0.4961832061068702,1.2976572998046874,0.5363011718749999,9.052476477050782,29.28294117647059
2025-10-20T14:29:02.811848,-1.2366412213740459,0.07633587786259542,0.3435114503816794,0.842758984375,0.08379705810546874,8.908824377441405,29.28294117647059
2025-10-20T14:29:02.828688,-0.08396946564885496,0.8320610687022901,0.3282442748091603,0.4165910888671875,-0.689530078125,9.476250170898437,29.23588235294118
2025-10-20T14:29:02.851143,-1.3358778625954197,1.0610687022900764,0.26717557251908397,0.59376201171875,0.19393033447265623,9.014169250488282,29.330000000000002
2025-10-20T14:29:02.873545,-0.007633587786259542,-1.6641221374045803,0.09923664122137404,0.8571241943359375,-0.06943184814453125,9.483432775878907,29.28294117647059
2025-10-20T14:29:02.890476,-0.3053435114503817,1.1526717557251909,0.2900763358778626,0.5291185668945312,0.0047884033203125,9.119514123535156,29.28294117647059
2025-10-20T14:29:02.912400,1.8549618320610688,1.2061068702290076,0.22900763358778625,0.3399766357421875,0.08140285644531249,9.172186560058593,29.424117647058825
2025-10-20T14:29:02.935457,-0.22900763358778625,0.9847328244274809,0.12213740458015267,0.4740519287109375,-0.016759411621093748,9.318232861328125,29.28294117647059
2025-10-20T14:29:02.952335,-0.16030534351145037,0.5114503816793893,0.2366412213740458,0.30885201416015623,0.055066638183593745,9.313444458007812,29.330000000000002
2025-10-20T14:29:02.973478,-0.6793893129770993,0.4198473282442748,0.48854961832061067,0.5147533569335937,0.0430956298828125,9.289502441406249,29.28294117647059
2025-10-20T14:29:02.996555,-0.9312977099236641,0.6106870229007634,0.32061068702290074,0.5770026000976562,0.0143652099609375,9.181763366699219,29.23588235294118
2025-10-20T14:29:03.014322,-1.3282442748091603,0.8015267175572519,0.4122137404580153,0.5219359619140624,0.0383072265625,9.296685046386719,29.28294117647059
2025-10-20T14:29:03.034107,-1.7633587786259541,0.6870229007633588,0.2900763358778626,0.6272808349609375,0.10295067138671875,9.320627062988281,29.28294117647059
2025-10-20T14:29:03.056729,-1.8625954198473282,0.5114503816793893,0.5267175572519084,0.45489831542968745,0.10295067138671875,9.191340173339842,29.330000000000002
2025-10-20T14:29:03.075705,-1.9083969465648856,0.2824427480916031,0.4961832061068702,0.737414111328125,0.02633621826171875,9.495403784179686,29.330000000000002
2025-10-20T14:29:03.093983,-2.351145038167939,0.48091603053435117,0.5267175572519084,0.6153098266601562,0.17956512451171874,9.327809667968749,29.424117647058825
2025-10-20T14:29:03.116242,-2.4427480916030535,0.1450381679389313,0.5725190839694656,0.3902548706054687,-0.040701428222656245,9.222464794921875,29.28294117647059
2025-10-20T14:29:03.137722,-2.7022900763358777,0.5877862595419847,0.2824427480916031,0.5458779785156249,0.22266075439453123,9.430760339355468,29.28294117647059
2025-10-20T14:29:03.155209,-2.633587786259542,0.44274809160305345,0.4961832061068702,0.3495534423828125,-0.09337386474609374,9.2320416015625,29.23588235294118
2025-10-20T14:29:03.176995,-3.015267175572519,0.4198473282442748,0.40458015267175573,0.4908113403320312,0.02154781494140625,9.3852705078125,29.28294117647059
2025-10-20T14:29:03.198126,-2.9389312977099236,0.37404580152671757,0.45038167938931295,0.4860229370117187,0.19871873779296872,9.22485899658203,29.330000000000002
2025-10-20T14:29:03.214960,-2.8702290076335877,0.816793893129771,0.4198473282442748,0.4572925170898437,-0.033518823242187495,9.258377819824219,29.28294117647059
2025-10-20T14:29:03.236680,-2.7938931297709924,0.366412213740458,0.8320610687022901,0.47644613037109373,0.06703764648437499,9.361328491210937,29.28294117647059
2025-10-20T14:29:03.259021,-2.83206106870229,0.5725190839694656,0.3969465648854962,0.5865794067382812,-0.20350714111328125,9.248801013183593,29.23588235294118
2025-10-20T14:29:03.275851,-2.2519083969465647,0.6335877862595419,0.45038167938931295,0.5410895751953124,0.14125789794921875,9.284714038085937,29.330000000000002
2025-10-20T14:29:03.297532,-3.9083969465648853,0.1450381679389313,0.3282442748091603,0.4213794921875,0.1484405029296875,9.380482104492186,29.330000000000002
2025-10-20T14:29:03.320495,-1.9389312977099236,0.1297709923664122,0.5114503816793893,0.4836287353515625,0.24660277099609373,9.217676391601563,29.330000000000002
2025-10-20T14:29:03.337326,-1.916030534351145,0.5114503816793893,0.5725190839694656,0.6177040283203125,0.040701428222656245,9.248801013183593,29.28294117647059
2025-10-20T14:29:03.357659,-3.83206106870229,0.25190839694656486,0.4732824427480916,0.5865794067382812,0.07900865478515624,9.294290844726563,29.330000000000002
2025-10-20T14:29:03.380528,-1.9618320610687023,0.2595419847328244,0.7022900763358778,0.6751648681640625,0.10295067138671875,9.37808790283203,29.28294117647059
2025-10-20T14:29:03.398613,-2.2900763358778624,0.7786259541984732,0.648854961832061,0.507570751953125,0.055066638183593745,9.344569079589844,29.23588235294118
2025-10-20T14:29:03.417643,-1.8473282442748091,0.3893129770992366,0.6183206106870229,0.5410895751953124,0.16280571289062498,9.34696328125,29.330000000000002
2025-10-20T14:29:03.439972,-1.8091603053435115,0.6717557251908397,0.4580152671755725,0.4429273071289062,0.29927520751953124,9.382876306152344,29.28294117647059
2025-10-20T14:29:03.459370,-1.3358778625954197,0.42748091603053434,0.6335877862595419,0.5195417602539062,0.08140285644531249,9.251195214843749,29.23588235294118
2025-10-20T14:29:03.477218,-1.3129770992366412,0.22137404580152673,0.648854961832061,0.49320554199218747,-0.016759411621093748,9.370905297851563,29.28294117647059
2025-10-20T14:29:03.499307,-1.4045801526717556,0.5725190839694656,0.7404580152671756,0.45010991210937495,-0.062249243164062495,9.26316622314453,29.330000000000002
2025-10-20T14:29:03.520131,-0.9618320610687023,0.13740458015267176,0.5190839694656488,0.4644751220703125,0.04548983154296875,9.325415466308593,29.28294117647059
2025-10-20T14:29:03.537099,-0.8473282442748091,0.29770992366412213,0.7022900763358778,0.4908113403320312,0.06464344482421874,9.380482104492186,29.23588235294118
2025-10-20T14:29:03.559372,-0.5572519083969466,0.33587786259541985,0.7022900763358778,0.5386953735351562,-0.1388636962890625,9.289502441406249,29.377058823529413
2025-10-20T14:29:03.581627,-0.2824427480916031,1.8854961832061068,0.6564885496183206,0.5793968017578125,0.08858546142578125,9.253589416503905,29.377058823529413
2025-10-20T14:29:03.598544,-0.3511450381679389,0.2366412213740458,0.5954198473282443,0.55545478515625,0.06703764648437499,9.387664709472656,29.23588235294118
2025-10-20T14:29:03.620358,-0.46564885496183206,0.0,0.5801526717557252,0.5386953735351562,0.0383072265625,9.294290844726563,29.377058823529413
2025-10-20T14:29:03.643811,-0.5343511450381679,-0.1450381679389313,0.5038167938931297,0.5195417602539062,0.07900865478515624,9.244012609863281,29.28294117647059
2025-10-20T14:29:03.660815,-0.9694656488549618,-0.183206106870229,0.6030534351145038,0.38307226562499996,0.11731588134765625,9.289502441406249,29.471176470588237
2025-10-20T14:29:03.682476,-1.1908396946564885,-0.3511450381679389,0.8244274809160306,0.5195417602539062,0.12210428466796874,9.289502441406249,29.23588235294118
2025-10-20T14:29:03.705633,-1.3282442748091603,-0.3816793893129771,0.5725190839694656,0.51714755859375,0.13407529296874998,9.100360510253905,29.330000000000002
2025-10-20T14:29:03.722554,-1.5419847328244274,-0.4351145038167939,0.5648854961832062,0.5147533569335937,0.12449848632812499,9.265560424804686,29.377058823529413
2025-10-20T14:29:03.743267,-0.015267175572519083,-0.32061068702290074,0.7099236641221374,0.5434837768554687,0.11731588134765625,9.3852705078125,29.377058823529413
2025-10-20T14:29:03.766397,-2.4732824427480917,-0.3893129770992366,0.5801526717557252,0.34715924072265625,0.18435352783203124,9.253589416503905,29.28294117647059
2025-10-20T14:29:03.784146,-2.7786259541984735,-0.4198473282442748,0.7175572519083969,0.5434837768554687,0.1292868896484375,9.241618408203124,29.28294117647059
2025-10-20T14:29:03.803963,-3.183206106870229,-0.3893129770992366,0.5419847328244275,0.5219359619140624,0.06943184814453125,9.459490759277344,29.28294117647059
2025-10-20T14:29:03.826530,-3.1297709923664123,-0.5114503816793893,0.549618320610687,0.48123453369140623,0.1484405029296875,9.234435803222656,29.330000000000002
2025-10-20T14:29:03.845142,-2.984732824427481,-1.099236641221374,0.5725190839694656,0.6009446166992187,0.0047884033203125,9.258377819824219,29.377058823529413
2025-10-20T14:29:03.864286,-3.267175572519084,-0.5267175572519084,0.5725190839694656,0.411802685546875,0.05985504150390625,9.466673364257812,29.23588235294118
2025-10-20T14:29:03.886725,-3.5877862595419847,-0.3816793893129771,0.45038167938931295,0.5602431884765625,0.09337386474609374,9.368511096191405,29.330000000000002
2025-10-20T14:29:03.906285,-3.0,-0.8931297709923665,0.6870229007633588,0.4644751220703125,-0.00718260498046875,9.428366137695312,29.188823529411767
2025-10-20T14:29:03.924357,-2.7022900763358777,-0.5190839694656488,0.4732824427480916,0.4908113403320312,0.076614453125,9.387664709472656,29.377058823529413
2025-10-20T14:29:03.946437,-2.6564885496183206,-0.8244274809160306,0.6106870229007634,0.6823474731445313,0.0718260498046875,9.488221179199218,29.23588235294118
2025-10-20T14:29:03.967174,-2.435114503816794,-0.31297709923664124,0.3282442748091603,0.5410895751953124,-0.08379705810546874,9.447519750976562,29.28294117647059
2025-10-20T14:29:03.984131,-0.022900763358778626,-0.2900763358778626,0.5038167938931297,0.4644751220703125,0.09337386474609374,9.435548742675781,29.23588235294118
2025-10-20T14:29:04.006146,-2.0381679389312977,-0.33587786259541985,0.2748091603053435,0.612915625,0.1197100830078125,9.2320416015625,29.330000000000002
2025-10-20T14:29:04.028251,-1.297709923664122,-0.07633587786259542,0.4122137404580153,0.689530078125,0.0718260498046875,9.428366137695312,29.330000000000002
2025-10-20T14:29:04.045164,-1.297709923664122,0.05343511450381679,0.2900763358778626,0.5267243652343749,-0.076614453125,9.323021264648437,29.28294117647059
2025-10-20T14:29:04.067177,-1.0610687022900764,0.6717557251908397,1.9312977099236641,0.6392518432617187,0.033518823242187495,9.409212524414063,29.28294117647059
2025-10-20T14:29:04.090396,-1.2442748091603053,0.8244274809160306,0.29770992366412213,0.46686932373046874,0.15322890625,9.275137231445312,29.188823529411767
2025-10-20T14:29:04.107296,-1.2213740458015268,1.297709923664122,0.10687022900763359,0.4644751220703125,0.18435352783203124,9.435548742675781,29.28294117647059
2025-10-20T14:29:04.128601,-1.3740458015267176,1.0305343511450382,0.29770992366412213,0.6009446166992187,0.1867477294921875,9.617508068847656,29.28294117647059
2025-10-20T14:29:04.152323,-1.534351145038168,1.4122137404580153,0.05343511450381679,0.70868369140625,0.0047884033203125,9.490615380859374,29.23588235294118
2025-10-20T14:29:04.169210,-0.030534351145038167,2.236641221374046,0.2595419847328244,0.63206923828125,0.12449848632812499,9.37808790283203,29.28294117647059
2025-10-20T14:29:04.190002,-1.7557251908396947,1.618320610687023,0.20610687022900764,0.5602431884765625,0.14604630126953125,9.215282189941405,29.377058823529413
2025-10-20T14:29:04.213267,-1.6412213740458015,3.900763358778626,0.21374045801526717,0.74699091796875,0.201112939453125,9.265560424804686,29.330000000000002
2025-10-20T14:29:04.231039,-1.4045801526717556,2.267175572519084,0.16030534351145037,0.59376201171875,-0.10773907470703124,9.260772021484375,29.23588235294118
2025-10-20T14:29:04.250948,-1.099236641221374,2.2900763358778624,0.20610687022900764,0.507570751953125,0.05985504150390625,9.220070593261719,29.330000000000002
2025-10-20T14:29:04.273861,-1.2290076335877862,2.480916030534351,0.22137404580152673,0.5267243652343749,0.06943184814453125,9.272743029785156,29.330000000000002
2025-10-20T14:29:04.292956,-1.4961832061068703,2.50381679389313,0.09923664122137404,0.5482721801757812,0.10295067138671875,9.433154541015625,29.330000000000002
2025-10-20T14:29:04.311622,-1.4961832061068703,2.0763358778625953,0.1450381679389313,0.5770026000976562,0.00239420166015625,9.392453112792968,29.330000000000002
2025-10-20T14:29:04.334127,-1.4122137404580153,2.0839694656488548,0.19083969465648856,0.5746083984375,-0.03591302490234375,9.272743029785156,29.23588235294118
2025-10-20T14:29:04.354538,-1.3969465648854962,1.8473282442748091,0.16030534351145037,0.51714755859375,0.00239420166015625,9.418789331054686,29.330000000000002
2025-10-20T14:29:04.371658,-1.6106870229007633,2.0,0.21374045801526717,0.5674257934570313,0.1771709228515625,9.239224206542968,29.377058823529413
2025-10-20T14:29:04.393681,-1.5648854961832062,1.3969465648854962,0.25190839694656486,0.5099649536132812,0.07900865478515624,9.196128576660156,29.28294117647059
2025-10-20T14:29:04.415278,-1.3053435114503817,1.5648854961832062,0.21374045801526717,0.45010991210937495,0.30406361083984373,9.404424121093749,29.330000000000002
2025-10-20T14:29:04.432225,-1.083969465648855,0.8015267175572519,0.3053435114503817,0.584185205078125,0.033518823242187495,9.244012609863281,29.330000000000002
2025-10-20T14:29:04.454195,-1.1603053435114503,0.732824427480916,0.183206106870229,0.5889736083984375,-0.1005564697265625,9.279925634765624,29.330000000000002
2025-10-20T14:29:04.476624,-1.2213740458015268,0.3511450381679389,0.366412213740458,0.5315127685546874,0.10773907470703124,9.45470235595703,29.23588235294118
2025-10-20T14:29:04.493540,-1.4885496183206106,0.030534351145038167,0.5190839694656488,0.7015010864257812,0.040701428222656245,9.054870678710937,29.330000000000002
2025-10-20T14:29:04.515441,-1.4045801526717556,-0.4351145038167939,0.3282442748091603,0.48123453369140623,-0.13168109130859373,9.193734375,29.377058823529413
2025-10-20T14:29:04.538789,-1.2290076335877862,-0.6793893129770993,0.35877862595419846,0.603338818359375,0.086191259765625,9.054870678710937,29.28294117647059
2025-10-20T14:29:04.555772,-1.4885496183206106,-1.1908396946564885,0.5267175572519084,0.46208092041015625,0.086191259765625,9.117119921875,29.23588235294118
2025-10-20T14:29:04.577089,-1.2900763358778626,-1.4961832061068703,0.48854961832061067,0.5027823486328125,0.14125789794921875,9.0021982421875,29.28294117647059
2025-10-20T14:29:04.600285,-1.5114503816793894,-1.916030534351145,-1.9312977099236641,0.36391865234375,0.28490999755859375,9.244012609863281,29.28294117647059
2025-10-20T14:29:04.617625,-1.5877862595419847,-5.847328244274809,0.07633587786259542,0.7206546997070312,0.29448680419921874,9.53131680908203,29.330000000000002
2025-10-20T14:29:04.638224,-1.916030534351145,-2.6030534351145036,-0.26717557251908397,0.5889736083984375,-0.086191259765625,9.105148913574219,29.28294117647059
2025-10-20T14:29:04.660961,-3.8625954198473282,-2.572519083969466,-0.06870229007633588,0.47165772705078124,0.1005564697265625,9.356540087890625,29.330000000000002
2025-10-20T14:29:04.678879,-2.267175572519084,-2.4732824427480917,-0.3053435114503817,0.5003881469726562,0.13407529296874998,9.402029919433593,29.330000000000002
2025-10-20T14:29:04.698609,-2.1068702290076335,-2.8473282442748094,-0.29770992366412213,0.49320554199218747,0.062249243164062495,9.327809667968749,29.377058823529413
2025-10-20T14:29:04.721282,-2.312977099236641,-1.8854961832061068,-0.2748091603053435,0.6631938598632812,0.28012159423828126,9.363722692871093,29.28294117647059
2025-10-20T14:29:04.740417,-3.0381679389312977,-2.8931297709923665,-0.3282442748091603,1.0199299072265624,0.14125789794921875,9.3852705078125,29.23588235294118
2025-10-20T14:29:04.758833,-3.564885496183206,-3.8396946564885495,-0.22137404580152673,0.5315127685546874,0.181959326171875,9.473855969238281,29.377058823529413
2025-10-20T14:29:04.781133,-3.1068702290076335,-1.3129770992366412,-0.2824427480916031,0.33758243408203126,-0.023942016601562498,9.497797985839844,29.330000000000002
2025-10-20T14:29:04.801509,-3.3740458015267176,-0.9541984732824428,-0.31297709923664124,0.7565677246093749,0.086191259765625,9.251195214843749,29.28294117647059
2025-10-20T14:29:04.818810,-3.267175572519084,-2.053435114503817,-0.29770992366412213,0.5865794067382812,0.033518823242187495,9.730035546875,29.330000000000002
2025-10-20T14:29:04.840634,-3.381679389312977,-1.1374045801526718,-0.5267175572519084,0.40222587890625,0.05027823486328125,9.641450085449218,29.28294117647059
2025-10-20T14:29:04.862232,-3.045801526717557,-1.0610687022900764,-0.3893129770992366,0.6871358764648438,0.02154781494140625,9.45470235595703,29.424117647058825
2025-10-20T14:29:04.879269,-2.9236641221374047,-0.549618320610687,-0.4351145038167939,0.5961562133789062,0.055066638183593745,9.610325463867188,29.330000000000002
2025-10-20T14:29:04.901784,-3.900763358778626,-0.3511450381679389,-0.6030534351145038,0.9720458740234375,-0.14125789794921875,9.746794958496093,29.377058823529413
2025-10-20T14:29:04.924850,-2.0763358778625953,0.7175572519083969,-0.7786259541984732,0.8690952026367187,-0.2920926025390625,8.916006982421875,29.23588235294118
2025-10-20T14:29:04.941777,-2.145038167938931,0.732824427480916,-0.7251908396946565,0.5243301635742187,0.1149216796875,9.30147344970703,29.28294117647059
2025-10-20T14:29:04.964159,-3.564885496183206,1.16793893129771,-1.183206106870229,1.2042834350585936,-0.1149216796875,9.524134204101562,29.28294117647059
2025-10-20T14:29:04.987554,-0.3282442748091603,0.3893129770992366,-1.4580152671755726,1.3455413330078123,0.02154781494140625,9.246406811523437,29.23588235294118
2025-10-20T14:29:05.004515,0.6030534351145038,0.030534351145038167,-1.6870229007633588,0.6943184814453125,0.36631285400390623,9.859322436523437,29.23588235294118
2025-10-20T14:29:05.026074,0.5725190839694656,1.5267175572519085,-1.7938931297709924,0.603338818359375,0.13646949462890623,9.421183532714844,29.377058823529413
2025-10-20T14:29:05.049782,-0.9618320610687023,3.900763358778626,-1.83206106870229,1.0726023437499999,0.4740519287109375,9.351751684570312,29.28294117647059
2025-10-20T14:29:05.066686,-0.7480916030534351,2.1755725190839694,-2.0839694656488548,0.6200982299804687,-0.15083470458984374,9.459490759277344,29.330000000000002
2025-10-20T14:29:05.088038,-1.282442748091603,0.061068702290076333,-1.984732824427481,0.6081272216796875,0.2154781494140625,9.356540087890625,29.28294117647059
2025-10-20T14:29:05.111022,-2.5801526717557253,2.4122137404580153,-1.6870229007633588,1.0390835205078124,-0.12210428466796874,9.330203869628905,29.23588235294118
2025-10-20T14:29:05.128343,-2.5114503816793894,2.4122137404580153,-1.7328244274809161,1.0486603271484374,0.17956512451171874,9.150638745117186,29.330000000000002
2025-10-20T14:29:05.148823,-2.572519083969466,2.7022900763358777,-1.5114503816793894,0.7110778930664062,-0.028730419921875,9.488221179199218,29.330000000000002
2025-10-20T14:29:05.171645,-3.198473282442748,2.4732824427480917,-1.381679389312977,1.0007762939453124,-0.0526724365234375,9.215282189941405,29.188823529411767
2025-10-20T14:29:05.189398,-2.9083969465648853,2.33587786259542,-1.0763358778625953,0.737414111328125,0.03591302490234375,9.066841687011719,29.28294117647059
2025-10-20T14:29:05.209464,-2.5877862595419847,2.3740458015267176,-1.0458015267175573,0.7900865478515624,-0.16041151123046873,9.270348828125,29.28294117647059
2025-10-20T14:29:05.232219,-2.595419847328244,2.4122137404580153,-1.0229007633587786,0.5626373901367188,-0.21068974609375,9.167398156738281,29.377058823529413
2025-10-20T14:29:05.250848,-2.2977099236641223,1.8702290076335877,-0.7480916030534351,0.9169792358398436,0.00239420166015625,9.0788126953125,29.330000000000002
2025-10-20T14:29:05.269840,-2.1755725190839694,1.3053435114503817,-0.8549618320610687,0.9409212524414062,-0.13646949462890623,9.323021264648437,29.330000000000002
2025-10-20T14:29:05.292499,-1.7709923664122138,1.3587786259541985,-0.9465648854961832,0.5746083984375,-0.0526724365234375,9.284714038085937,29.330000000000002
2025-10-20T14:29:05.311996,-2.2061068702290076,1.251908396946565,-0.7862595419847328,0.6727706665039062,0.22026655273437498,9.244012609863281,29.330000000000002
2025-10-20T14:29:05.330119,-1.6641221374045803,0.5343511450381679,-0.9541984732824428,0.7350199096679687,0.011971008300781249,9.217676391601563,29.377058823529413
2025-10-20T14:29:05.352516,-1.2442748091603053,0.6793893129770993,-1.0916030534351144,0.38307226562499996,0.14125789794921875,9.332598071289063,29.28294117647059
2025-10-20T14:29:05.373340,-1.251908396946565,0.7022900763358778,-1.1526717557251909,0.5291185668945312,-0.086191259765625,9.093177905273437,29.28294117647059
2025-10-20T14:29:05.390239,-1.3969465648854962,0.3053435114503817,-1.1908396946564885,0.507570751953125,0.17477672119140625,9.267954626464844,29.28294117647059
2025-10-20T14:29:05.412357,-1.0610687022900764,0.22900763358778625,-1.1450381679389312,0.51714755859375,0.28969840087890625,9.246406811523437,29.23588235294118
2025-10-20T14:29:05.434043,-1.297709923664122,-0.24427480916030533,-1.099236641221374,0.5985504150390625,-0.011971008300781249,9.193734375,29.330000000000002
2025-10-20T14:29:05.451010,-1.534351145038168,-0.07633587786259542,-1.1145038167938932,0.6584054565429687,0.023942016601562498,9.275137231445312,29.377058823529413
2025-10-20T14:29:05.473058,-1.549618320610687,-0.21374045801526717,-1.1297709923664123,0.5267243652343749,0.1149216796875,9.287108239746093,29.330000000000002
2025-10-20T14:29:05.495615,-1.4580152671755726,-0.19083969465648856,-1.3358778625954197,0.5817910034179687,0.08379705810546874,9.394847314453125,29.28294117647059
2025-10-20T14:29:05.512597,-1.3358778625954197,-0.5648854961832062,-1.5267175572519085,0.7110778930664062,0.29448680419921874,9.421183532714844,29.377058823529413
2025-10-20T14:29:05.534821,-1.1145038167938932,-0.4580152671755725,-1.534351145038168,0.51714755859375,0.08858546142578125,9.459490759277344,29.377058823529413
2025-10-20T14:29:05.558306,-0.9618320610687023,-0.3893129770992366,-1.7251908396946565,0.3064578125,0.16759411621093748,9.253589416503905,29.330000000000002
2025-10-20T14:29:05.575313,-1.1603053435114503,-0.3969465648854962,-2.2519083969465647,0.6200982299804687,0.105344873046875,9.373299499511718,29.23588235294118
2025-10-20T14:29:05.597127,-1.0076335877862594,-0.16793893129770993,-2.4122137404580153,0.4740519287109375,0.24181436767578124,9.296685046386719,29.28294117647059
2025-10-20T14:29:05.620279,-1.0916030534351144,-0.37404580152671757,-2.732824427480916,0.5817910034179687,0.11252747802734374,9.471461767578125,29.330000000000002
2025-10-20T14:29:05.637305,-1.2671755725190839,1.9083969465648856,-2.9770992366412212,0.5865794067382812,0.239420166015625,9.502586389160156,29.330000000000002
2025-10-20T14:29:05.659286,-1.1755725190839694,-0.366412213740458,-3.1755725190839694,0.6153098266601562,0.10295067138671875,9.418789331054686,29.28294117647059
2025-10-20T14:29:05.682646,-1.0687022900763359,-0.0916030534351145,-3.6259541984732824,0.6392518432617187,0.24660277099609373,9.402029919433593,29.330000000000002
2025-10-20T14:29:05.699680,-1.4122137404580153,-0.12213740458015267,-3.763358778625954,0.4955997436523437,0.05985504150390625,9.4618849609375,29.330000000000002
2025-10-20T14:29:05.721199,-1.366412213740458,0.08396946564885496,-4.099236641221374,0.55545478515625,0.09337386474609374,9.471461767578125,29.28294117647059
2025-10-20T14:29:05.744535,-1.381679389312977,0.19083969465648856,-4.175572519083969,0.5674257934570313,0.28012159423828126,9.366116894531249,29.330000000000002
2025-10-20T14:29:05.761851,-1.3282442748091603,1.916030534351145,-4.526717557251908,0.5674257934570313,0.22744915771484372,9.4618849609375,29.28294117647059
2025-10-20T14:29:05.782147,-1.3435114503816794,-0.16030534351145037,-4.854961832061068,0.55545478515625,0.19153613281249998,9.33978067626953,29.28294117647059
2025-10-20T14:29:05.805261,-1.4809160305343512,-0.35877862595419846,-5.236641221374046,0.6081272216796875,0.1197100830078125,9.373299499511718,29.28294117647059
2025-10-20T14:29:05.823449,-1.5801526717557253,-0.32061068702290074,-5.847328244274809,0.5674257934570313,0.354341845703125,9.409212524414063,29.377058823529413
2025-10-20T14:29:05.842918,-1.4274809160305344,-0.2595419847328244,-6.0,0.46686932373046874,0.19632453613281248,9.318232861328125,29.330000000000002
2025-10-20T14:29:05.865662,-1.83206106870229,-0.46564885496183206,-6.297709923664122,0.5434837768554687,0.258573779296875,9.406818322753905,29.28294117647059
2025-10-20T14:29:05.884850,-2.0381679389312977,-0.46564885496183206,-6.778625954198473,0.3806780639648437,0.143652099609375,9.560047229003906,29.330000000000002
2025-10-20T14:29:05.903694,-2.145038167938931,-0.11450381679389313,-6.99236641221374,0.4955997436523437,0.18914193115234373,9.30147344970703,29.377058823529413
2025-10-20T14:29:05.926192,-2.4122137404580153,-0.16030534351145037,-7.267175572519084,0.603338818359375,0.258573779296875,9.543287817382812,29.23588235294118
2025-10-20T14:29:05.946702,-2.763358778625954,-0.31297709923664124,-7.595419847328245,0.8068459594726562,0.6727706665039062,9.53131680908203,29.330000000000002
2025-10-20T14:29:05.963908,-3.1908396946564888,-1.3893129770992367,-8.099236641221374,0.622492431640625,0.3016694091796875,9.785102185058593,29.330000000000002
2025-10-20T14:29:05.985943,-3.2748091603053435,-0.11450381679389313,-8.50381679389313,0.7158662963867187,0.26336218261718747,9.198522778320312,29.28294117647059
2025-10-20T14:29:06.007649,-3.8473282442748094,0.48091603053435117,-8.488549618320612,0.45489831542968745,0.14604630126953125,9.275137231445312,29.28294117647059
2025-10-20T14:29:06.024539,-3.8625954198473282,0.5343511450381679,-8.770992366412214,0.44532150878906246,0.12689268798828124,9.476250170898437,29.23588235294118
2025-10-20T14:29:06.046681,-3.7480916030534353,0.5954198473282443,-8.50381679389313,0.5578489868164063,0.4644751220703125,9.193734375,29.188823529411767
2025-10-20T14:29:06.069254,-3.1526717557251906,-1.9465648854961832,-8.534351145038167,0.6057330200195312,-0.05027823486328125,9.504980590820312,29.330000000000002
2025-10-20T14:29:06.086145,-2.83206106870229,-0.5038167938931297,-8.01526717557252,0.5099649536132812,0.04548983154296875,9.466673364257812,29.188823529411767
2025-10-20T14:29:06.108348,-3.3435114503816794,0.46564885496183206,-7.557251908396947,0.8667010009765624,0.5458779785156249,9.928754284667969,29.188823529411767
2025-10-20T14:29:06.131589,-3.2977099236641223,-0.6793893129770993,-7.366412213740458,0.16759411621093748,0.5003881469726562,9.504980590820312,29.330000000000002
2025-10-20T14:29:06.148462,-2.5572519083969465,0.26717557251908397,-7.213740458015267,0.22744915771484372,0.2346317626953125,9.105148913574219,29.377058823529413
2025-10-20T14:29:06.169548,-0.22900763358778625,0.48854961832061067,-6.885496183206107,0.30885201416015623,0.5865794067382812,9.318232861328125,29.330000000000002
2025-10-20T14:29:06.192508,-3.3282442748091605,3.7709923664122136,-6.809160305343512,0.28969840087890625,0.19871873779296872,9.217676391601563,29.330000000000002
2025-10-20T14:29:06.209893,-1.9236641221374047,-1.8854961832061068,-6.6106870229007635,0.49320554199218747,-0.13646949462890623,9.382876306152344,29.377058823529413
2025-10-20T14:29:06.230290,-2.366412213740458,0.3511450381679389,-6.549618320610687,0.47644613037109373,-0.28969840087890625,9.160215551757812,29.28294117647059
2025-10-20T14:29:06.253375,-2.3206106870229006,0.7633587786259542,-6.709923664122138,0.3232172241210937,0.18914193115234373,9.229647399902344,29.330000000000002
2025-10-20T14:29:06.271621,-2.7251908396946565,1.4885496183206106,-6.557251908396947,0.411802685546875,-0.09816226806640624,9.380482104492186,29.23588235294118
2025-10-20T14:29:06.291051,-2.66412213740458,1.3740458015267176,-6.137404580152672,0.6200982299804687,-0.11731588134765625,9.303867651367186,29.28294117647059
2025-10-20T14:29:06.313806,-2.49618320610687,0.6946564885496184,-5.694656488549619,0.6272808349609375,-0.16280571289062498,9.277531433105468,29.330000000000002
2025-10-20T14:29:06.332881,-2.2595419847328246,1.0,-5.267175572519084,0.5051765502929687,-0.05985504150390625,9.481038574218749,29.28294117647059
2025-10-20T14:29:06.351369,-0.030534351145038167,0.9312977099236641,-4.961832061068702,0.5267243652343749,-0.28490999755859375,9.047688073730468,29.330000000000002
2025-10-20T14:29:06.373822,-1.5419847328244274,1.1145038167938932,-4.435114503816794,0.7302315063476562,-0.22505495605468748,9.260772021484375,29.28294117647059
2025-10-20T14:29:06.394206,-1.3129770992366412,1.0763358778625953,-3.763358778625954,0.5817910034179687,-0.22026655273437498,8.999804040527343,29.330000000000002
2025-10-20T14:29:06.411415,-1.0916030534351144,0.5877862595419847,-2.7938931297709924,0.5722141967773438,-0.33758243408203126,9.129090930175781,29.28294117647059
2025-10-20T14:29:06.433311,-0.9465648854961832,0.20610687022900764,-2.5267175572519083,0.5482721801757812,-0.2537853759765625,9.260772021484375,29.28294117647059
2025-10-20T14:29:06.454912,-0.9847328244274809,0.04580152671755725,-3.8091603053435112,0.584185205078125,0.2442085693359375,9.143456140136719,29.330000000000002
2025-10-20T14:29:06.471825,-1.0458015267175573,0.5343511450381679,-2.0763358778625953,0.5865794067382812,0.2346317626953125,9.368511096191405,29.28294117647059
2025-10-20T14:29:06.493644,-1.1450381679389312,0.7633587786259542,-2.5801526717557253,0.6057330200195312,0.316034619140625,9.220070593261719,29.23588235294118
2025-10-20T14:29:06.516139,-1.2442748091603053,0.5419847328244275,-3.6106870229007635,0.3854664672851562,0.6153098266601562,9.648632690429688,29.330000000000002
2025-10-20T14:29:06.533063,-1.3511450381679388,0.48854961832061067,-4.580152671755725,0.24660277099609373,0.5339069702148437,9.289502441406249,29.23588235294118
2025-10-20T14:29:06.555122,-1.5190839694656488,1.16793893129771,-5.595419847328245,0.17956512451171874,0.5674257934570313,9.366116894531249,29.330000000000002
2025-10-20T14:29:06.578273,-1.5877862595419847,1.1755725190839694,-6.099236641221374,0.15562310791015624,0.0526724365234375,9.37808790283203,29.23588235294118
2025-10-20T14:29:06.595325,-1.0763358778625953,1.3282442748091603,-5.816793893129771,0.30406361083984373,-0.15083470458984374,9.267954626464844,29.23588235294118
2025-10-20T14:29:06.616126,-0.9694656488549618,1.0,-5.6106870229007635,0.4908113403320312,-0.0047884033203125,9.234435803222656,29.28294117647059
2025-10-20T14:29:06.639227,-0.9694656488549618,0.5877862595419847,-5.038167938931298,0.5602431884765625,-0.02154781494140625,9.05965908203125,29.330000000000002
2025-10-20T14:29:06.657114,-0.9389312977099237,0.35877862595419846,-4.969465648854962,0.4836287353515625,0.0909796630859375,9.30147344970703,29.28294117647059
2025-10-20T14:29:06.676866,-0.7786259541984732,0.7557251908396947,-4.938931297709924,0.39264907226562495,-0.047884033203124995,9.18655177001953,29.28294117647059
2025-10-20T14:29:06.699507,-0.5954198473282443,1.2213740458015268,-4.534351145038168,0.3806780639648437,-0.2059013427734375,9.227253198242186,29.188823529411767
2025-10-20T14:29:06.718646,-0.7557251908396947,0.6793893129770993,-4.091603053435114,0.3184288208007812,-0.2346317626953125,9.414000927734374,29.330000000000002
2025-10-20T14:29:06.737041,-1.16793893129771,0.16030534351145037,-3.66412213740458,0.3184288208007812,-0.033518823242187495,9.279925634765624,29.377058823529413
2025-10-20T14:29:06.759374,-1.1908396946564885,-0.13740458015267176,-3.030534351145038,0.3711012573242187,-0.2346317626953125,9.583989245605467,29.330000000000002
2025-10-20T14:29:06.779682,-1.5801526717557253,-0.08396946564885496,-2.6793893129770994,0.44053310546874996,0.1005564697265625,9.251195214843749,29.377058823529413
2025-10-20T14:29:06.796795,-1.7786259541984732,0.183206106870229,-2.687022900763359,0.3447650390625,0.0430956298828125,9.358934289550781,29.330000000000002
2025-10-20T14:29:06.818580,-1.9541984732824427,0.7175572519083969,-2.572519083969466,0.430956298828125,-0.09576806640624999,9.464279162597656,29.23588235294118
2025-10-20T14:29:06.840135,-1.9312977099236641,0.7786259541984732,-2.381679389312977,0.36631285400390623,0.028730419921875,9.3852705078125,29.377058823529413
2025-10-20T14:29:06.857186,-2.015267175572519,0.6564885496183206,-2.351145038167939,0.3327940307617187,0.0,9.430760339355468,29.188823529411767
2025-10-20T14:29:06.879285,-1.8854961832061068,0.4961832061068702,-2.2900763358778624,0.17238251953125,-0.07422025146484375,9.428366137695312,29.330000000000002
2025-10-20T14:29:06.902157,-1.4198473282442747,0.9923664122137404,-2.519083969465649,0.4333505004882812,0.316034619140625,9.37808790283203,29.330000000000002
2025-10-20T14:29:06.919162,-1.9389312977099236,1.083969465648855,-2.8091603053435112,0.4572925170898437,0.29927520751953124,9.643844287109374,29.23588235294118
2025-10-20T14:29:06.940934,-2.053435114503817,0.6259541984732825,-3.0076335877862594,0.39743747558593745,0.08140285644531249,9.414000927734374,29.23588235294118
2025-10-20T14:29:06.964090,-1.8549618320610688,0.6793893129770993,-2.801526717557252,0.38307226562499996,0.086191259765625,9.349357482910156,29.23588235294118
2025-10-20T14:29:06.981444,-1.5877862595419847,0.8015267175572519,-3.0229007633587788,0.2825157958984375,-0.1580173095703125,9.509768994140625,29.28294117647059
2025-10-20T14:29:07.001605,-1.83206106870229,0.9236641221374046,-3.015267175572519,0.4070142822265625,0.24660277099609373,9.176974963378905,29.330000000000002
2025-10-20T14:29:07.024361,-2.0763358778625953,1.1374045801526718,-2.7404580152671754,0.3591302490234375,-0.040701428222656245,9.358934289550781,29.23588235294118
2025-10-20T14:29:07.042965,-1.6259541984732824,0.7862595419847328,-2.83206106870229,0.5147533569335937,0.11013327636718749,9.284714038085937,29.377058823529413
2025-10-20T14:29:07.061806,-0.21374045801526717,0.33587786259541985,-2.3206106870229006,0.5315127685546874,-0.14125789794921875,9.430760339355468,29.330000000000002
2025-10-20T14:29:07.084137,-2.2519083969465647,0.366412213740458,-2.0916030534351147,0.5123591552734374,-0.0047884033203125,9.198522778320312,29.377058823529413
2025-10-20T14:29:07.104047,-2.0229007633587788,0.1984732824427481,-1.8091603053435115,0.5674257934570313,0.2920926025390625,9.37808790283203,29.377058823529413
2025-10-20T14:29:07.121572,-2.2290076335877864,0.22900763358778625,-1.4427480916030535,0.4860229370117187,-0.0430956298828125,9.236830004882812,29.28294117647059
2025-10-20T14:29:07.143523,-2.3435114503816794,-1.8702290076335877,-1.366412213740458,0.5961562133789062,0.0047884033203125,9.212887988281249,29.28294117647059
2025-10-20T14:29:07.164696,-2.6030534351145036,-0.08396946564885496,-0.8320610687022901,0.4908113403320312,-0.143652099609375,9.397241516113281,29.330000000000002
2025-10-20T14:29:07.181649,-2.2900763358778624,-0.13740458015267176,-0.9236641221374046,0.36152445068359373,0.0526724365234375,9.41639512939453,29.330000000000002
2025-10-20T14:29:07.203453,-2.450381679389313,-0.04580152671755725,-0.5648854961832062,0.5027823486328125,-0.009576806640625,9.387664709472656,29.28294117647059
2025-10-20T14:29:07.225912,-2.801526717557252,0.21374045801526717,-0.33587786259541985,0.5195417602539062,0.009576806640625,9.375693701171874,29.28294117647059
2025-10-20T14:29:07.242818,-2.549618320610687,0.05343511450381679,-0.37404580152671757,0.3112462158203125,-0.028730419921875,9.435548742675781,29.330000000000002
2025-10-20T14:29:07.264841,-2.4198473282442747,0.32061068702290074,-0.022900763358778626,0.603338818359375,0.1005564697265625,9.356540087890625,29.23588235294118
2025-10-20T14:29:07.288353,-2.351145038167939,0.31297709923664124,-0.11450381679389313,0.5291185668945312,0.10295067138671875,9.485826977539062,29.28294117647059
2025-10-20T14:29:07.305240,-2.267175572519084,-1.9312977099236641,-0.366412213740458,0.5722141967773438,0.21308394775390624,9.442731347656249,29.330000000000002
2025-10-20T14:29:07.325755,-2.5572519083969465,0.183206106870229,-0.3435114503816794,0.7350199096679687,0.1292868896484375,9.370905297851563,29.28294117647059
2025-10-20T14:29:07.348750,-2.5114503816793894,0.183206106870229,-0.44274809160305345,0.4836287353515625,0.22026655273437498,9.212887988281249,29.377058823529413
2025-10-20T14:29:07.366480,-2.404580152671756,0.2595419847328244,-0.5267175572519084,0.5315127685546874,0.10773907470703124,9.267954626464844,29.377058823529413
2025-10-20T14:29:07.386216,-2.3206106870229006,0.19083969465648856,-0.7251908396946565,0.6057330200195312,0.12210428466796874,9.272743029785156,29.188823529411767
2025-10-20T14:29:07.408611,-2.236641221374046,0.007633587786259542,-1.0305343511450382,0.7158662963867187,0.10295067138671875,9.246406811523437,29.28294117647059
2025-10-20T14:29:07.427189,-2.1297709923664123,0.366412213740458,-1.0763358778625953,0.6679822631835937,0.16041151123046873,9.320627062988281,29.377058823529413
2025-10-20T14:29:07.446010,-1.8625954198473282,-0.07633587786259542,-1.2595419847328244,0.5363011718749999,0.08140285644531249,9.284714038085937,29.330000000000002
2025-10-20T14:29:07.468084,-1.4809160305343512,-0.40458015267175573,-1.2595419847328244,0.6153098266601562,0.15562310791015624,9.244012609863281,29.28294117647059
2025-10-20T14:29:07.487521,-1.5572519083969465,-0.015267175572519083,-1.4580152671755726,0.5698199951171875,0.1149216796875,9.246406811523437,29.377058823529413
2025-10-20T14:29:07.505570,-1.7404580152671756,0.1984732824427481,-1.8396946564885497,0.5770026000976562,0.28730419921875,9.212887988281249,29.377058823529413
2025-10-20T14:29:07.527846,-1.5877862595419847,-0.03816793893129771,-1.748091603053435,0.51714755859375,0.1867477294921875,9.220070593261719,29.23588235294118
2025-10-20T14:29:07.548562,-1.6793893129770991,-0.2366412213740458,-1.6870229007633588,0.59376201171875,0.011971008300781249,9.198522778320312,29.330000000000002
2025-10-20T14:29:07.565620,-1.8091603053435115,-0.6259541984732825,-1.6641221374045803,0.5817910034179687,0.239420166015625,9.373299499511718,29.424117647058825
2025-10-20T14:29:07.587571,-2.0839694656488548,-0.030534351145038167,-1.6870229007633588,0.584185205078125,0.2753331909179687,9.476250170898437,29.23588235294118
2025-10-20T14:29:07.609664,-2.1603053435114505,-0.04580152671755725,-1.5877862595419847,0.5530605834960938,0.105344873046875,9.239224206542968,29.330000000000002
2025-10-20T14:29:07.626885,-1.748091603053435,-0.2366412213740458,-1.7404580152671756,0.5746083984375,0.11252747802734374,9.296685046386719,29.377058823529413
2025-10-20T14:29:07.649119,-1.381679389312977,-0.08396946564885496,-1.6870229007633588,0.40462008056640625,0.13168109130859373,9.368511096191405,29.330000000000002
2025-10-20T14:29:07.669943,-1.6870229007633588,-0.25190839694656486,-1.7786259541984732,0.41898529052734373,0.01915361328125,9.306261853027344,29.377058823529413
2025-10-20T14:29:07.687030,-1.7328244274809161,-0.03816793893129771,-1.6412213740458015,0.5027823486328125,0.16041151123046873,9.30147344970703,29.28294117647059
2025-10-20T14:29:07.709156,-1.5114503816793894,-1.9236641221374047,-1.7786259541984732,0.39743747558593745,0.040701428222656245,9.332598071289063,29.28294117647059
2025-10-20T14:29:07.730824,-1.6412213740458015,0.1297709923664122,-1.748091603053435,0.5698199951171875,0.05985504150390625,9.41639512939453,29.23588235294118
2025-10-20T14:29:07.747744,-1.8931297709923665,0.4351145038167939,-1.5419847328244274,0.5770026000976562,0.07900865478515624,9.320627062988281,29.424117647058825
2025-10-20T14:29:07.769922,-3.8244274809160306,0.6793893129770993,-1.8625954198473282,0.59376201171875,0.062249243164062495,9.085995300292968,29.377058823529413
2025-10-20T14:29:07.792036,-1.8778625954198473,0.3053435114503817,-1.6259541984732824,0.354341845703125,-0.016759411621093748,9.425971936035156,29.28294117647059
2025-10-20T14:29:07.809024,-3.877862595419847,0.15267175572519084,-1.5114503816793894,0.32082302246093747,0.06943184814453125,9.390058911132812,29.377058823529413
2025-10-20T14:29:07.831111,-1.748091603053435,0.5877862595419847,-1.4198473282442747,0.584185205078125,-0.06943184814453125,9.313444458007812,29.330000000000002
2025-10-20T14:29:07.853710,-1.5038167938931297,0.8244274809160306,-1.366412213740458,0.39743747558593745,-0.11731588134765625,9.236830004882812,29.28294117647059
2025-10-20T14:29:07.870567,-1.5190839694656488,0.3893129770992366,-1.0305343511450382,0.45489831542968745,0.0430956298828125,9.344569079589844,29.23588235294118
2025-10-20T14:29:07.892750,-1.7099236641221374,-0.07633587786259542,-0.7633587786259542,0.4955997436523437,0.076614453125,9.495403784179686,29.330000000000002
2025-10-20T14:29:07.916018,-1.7633587786259541,0.6183206106870229,-0.7099236641221374,0.5339069702148437,0.0430956298828125,9.311050256347656,29.330000000000002
2025-10-20T14:29:07.932880,-1.5648854961832062,0.48854961832061067,-0.5954198473282443,0.40462008056640625,-0.0383072265625,9.306261853027344,29.28294117647059
2025-10-20T14:29:07.953969,-1.748091603053435,0.2595419847328244,-0.3969465648854962,0.5339069702148437,0.07422025146484375,9.277531433105468,29.188823529411767
2025-10-20T14:29:07.977060,-1.7786259541984732,0.1984732824427481,-0.3435114503816794,0.4955997436523437,-0.06703764648437499,9.390058911132812,29.330000000000002
2025-10-20T14:29:07.994771,-1.4580152671755726,0.2595419847328244,-0.549618320610687,0.5291185668945312,0.105344873046875,9.227253198242186,29.23588235294118
2025-10-20T14:29:08.014363,-1.1526717557251909,0.45038167938931295,-0.7099236641221374,0.59376201171875,0.12449848632812499,9.421183532714844,29.28294117647059
2025-10-20T14:29:08.037032,-1.2595419847328244,0.07633587786259542,-0.9312977099236641,0.7996633544921875,0.23223756103515625,9.246406811523437,29.330000000000002
2025-10-20T14:29:08.056024,-1.0076335877862594,0.061068702290076333,-0.916030534351145,0.28730419921875,0.00239420166015625,9.397241516113281,29.23588235294118
2025-10-20T14:29:08.074375,-0.7709923664122137,0.25190839694656486,-1.3053435114503817,0.4477157104492187,0.03591302490234375,9.229647399902344,29.28294117647059
2025-10-20T14:29:08.096603,-1.0763358778625953,0.5267175572519084,-1.3587786259541985,0.622492431640625,0.3016694091796875,9.18655177001953,29.330000000000002
2025-10-20T14:29:08.116888,-1.1374045801526718,0.44274809160305345,-1.5038167938931297,0.4525041137695312,-0.0526724365234375,9.260772021484375,29.424117647058825
2025-10-20T14:29:08.134418,-0.8625954198473282,0.21374045801526717,-1.6030534351145038,0.5363011718749999,0.033518823242187495,9.356540087890625,29.330000000000002
2025-10-20T14:29:08.157725,-1.1984732824427482,0.22137404580152673,-1.549618320610687,0.63206923828125,0.1484405029296875,9.251195214843749,29.28294117647059
2025-10-20T14:29:08.179845,-1.1374045801526718,0.17557251908396945,-1.702290076335878,0.5770026000976562,0.0909796630859375,9.392453112792968,29.28294117647059
2025-10-20T14:29:08.196724,-1.4198473282442747,0.2900763358778626,-1.6717557251908397,0.469263525390625,-0.028730419921875,9.279925634765624,29.424117647058825
2025-10-20T14:29:08.218809,-1.2900763358778626,0.32061068702290074,-1.5572519083969465,0.5363011718749999,0.29927520751953124,9.198522778320312,29.28294117647059
2025-10-20T14:29:08.241226,-1.9312977099236641,0.12213740458015267,-1.2671755725190839,0.699106884765625,0.13168109130859373,9.397241516113281,29.28294117647059
2025-10-20T14:29:08.258063,-2.282442748091603,0.3893129770992366,-1.366412213740458,0.46686932373046874,0.22266075439453123,9.284714038085937,29.377058823529413
2025-10-20T14:29:08.280300,-3.9083969465648853,-1.5267175572519085,-1.2748091603053435,0.33758243408203126,0.2537853759765625,9.368511096191405,29.424117647058825
2025-10-20T14:29:08.303358,-2.3587786259541983,0.32061068702290074,-1.3358778625954197,0.6177040283203125,-0.05746083984375,9.047688073730468,29.28294117647059
2025-10-20T14:29:08.320238,-2.9083969465648853,-1.9465648854961832,-0.9389312977099237,0.6823474731445313,0.0383072265625,9.394847314453125,29.28294117647059
2025-10-20T14:29:08.341532,-2.6106870229007635,0.46564885496183206,-0.9694656488549618,0.34237083740234375,0.07422025146484375,9.641450085449218,29.330000000000002
2025-10-20T14:29:08.364420,-3.0916030534351147,0.3282442748091603,-0.9389312977099237,0.7015010864257812,0.086191259765625,9.437942944335937,29.28294117647059
2025-10-20T14:29:08.381374,-2.549618320610687,0.6335877862595419,-1.0229007633587786,0.28730419921875,-0.03591302490234375,9.382876306152344,29.377058823529413
2025-10-20T14:29:08.402111,-2.66412213740458,1.2900763358778626,-1.2900763358778626,0.3902548706054687,0.603338818359375,9.651026892089844,29.377058823529413
2025-10-20T14:29:08.425071,-2.183206106870229,0.183206106870229,-1.4198473282442747,0.5386953735351562,-0.143652099609375,9.253589416503905,29.28294117647059
2025-10-20T14:29:08.442827,-2.3969465648854964,0.32061068702290074,-1.450381679389313,0.2825157958984375,-0.00239420166015625,9.294290844726563,29.377058823529413
2025-10-20T14:29:08.463149,-1.8473282442748091,-0.4351145038167939,-1.7786259541984732,0.5315127685546874,0.26336218261718747,9.488221179199218,29.330000000000002
2025-10-20T14:29:08.485745,-0.007633587786259542,-0.22137404580152673,-3.885496183206107,0.6751648681640625,0.0383072265625,9.313444458007812,29.377058823529413
2025-10-20T14:29:08.503503,-1.8854961832061068,0.1450381679389313,-2.267175572519084,0.507570751953125,0.296881005859375,9.361328491210937,29.28294117647059
2025-10-20T14:29:08.523610,-1.8625954198473282,-0.06870229007633588,-2.5267175572519083,0.469263525390625,0.17477672119140625,9.34696328125,29.330000000000002
2025-10-20T14:29:08.546211,-2.2977099236641223,-0.22900763358778625,-2.732824427480916,0.5243301635742187,0.28969840087890625,9.488221179199218,29.377058823529413
2025-10-20T14:29:08.565250,-0.015267175572519083,-0.2595419847328244,-2.7938931297709924,0.4836287353515625,0.12689268798828124,9.279925634765624,29.23588235294118
2025-10-20T14:29:08.583717,-2.0763358778625953,-0.4198473282442748,-3.2977099236641223,0.5722141967773438,0.08140285644531249,9.229647399902344,29.28294117647059
2025-10-20T14:29:08.605990,-2.351145038167939,-0.6564885496183206,-3.3435114503816794,0.55545478515625,0.1149216796875,9.215282189941405,29.330000000000002
2025-10-20T14:29:08.626444,-2.1603053435114505,-0.061068702290076333,-3.3053435114503817,0.5458779785156249,0.05985504150390625,9.203311181640624,29.330000000000002
2025-10-20T14:29:08.644394,-1.6717557251908397,0.19083969465648856,-3.312977099236641,0.201112939453125,-0.13168109130859373,9.052476477050782,29.377058823529413
2025-10-20T14:29:08.666595,-1.6793893129770991,-0.11450381679389313,-3.16793893129771,0.5889736083984375,0.06703764648437499,9.279925634765624,29.28294117647059
2025-10-20T14:29:08.688291,-2.183206106870229,-0.5343511450381679,-3.267175572519084,0.5195417602539062,0.028730419921875,9.375693701171874,29.377058823529413
2025-10-20T14:29:08.705196,-2.1068702290076335,-0.648854961832061,-3.2213740458015265,0.5410895751953124,0.1149216796875,9.272743029785156,29.23588235294118
2025-10-20T14:29:08.727315,-3.885496183206107,-0.0916030534351145,-3.1068702290076335,0.5339069702148437,-0.086191259765625,9.107543115234375,29.23588235294118
2025-10-20T14:29:08.749874,-3.900763358778626,0.3435114503816794,-3.030534351145038,0.5410895751953124,0.16998831787109375,9.485826977539062,29.377058823529413
2025-10-20T14:29:08.766735,-2.618320610687023,0.7175572519083969,-3.1068702290076335,0.6943184814453125,0.2442085693359375,9.193734375,29.28294117647059
2025-10-20T14:29:08.788648,-2.236641221374046,0.5648854961832062,-3.366412213740458,0.6200982299804687,0.40940848388671874,9.222464794921875,29.377058823529413
2025-10-20T14:29:08.811728,-2.1068702290076335,0.366412213740458,-3.8473282442748094,0.6943184814453125,0.0718260498046875,9.284714038085937,29.330000000000002
2025-10-20T14:29:08.828669,-2.0229007633587788,0.25190839694656486,-3.954198473282443,0.5698199951171875,-0.086191259765625,9.397241516113281,29.377058823529413
2025-10-20T14:29:08.850271,-1.7251908396946565,0.3282442748091603,-3.954198473282443,0.7038952880859375,0.2920926025390625,9.370905297851563,29.330000000000002
2025-10-20T14:29:08.873341,-1.4274809160305344,0.7862595419847328,-3.9618320610687023,0.5219359619140624,-0.15322890625,9.466673364257812,29.330000000000002
2025-10-20T14:29:08.890301,-1.1374045801526718,1.0763358778625953,-3.8396946564885495,0.6200982299804687,-0.08858546142578125,9.354145886230468,29.28294117647059
2025-10-20T14:29:08.910983,-1.1984732824427482,0.9541984732824428,-3.7786259541984735,0.55545478515625,0.05027823486328125,9.2320416015625,29.28294117647059
2025-10-20T14:29:08.933711,-0.6793893129770993,0.9541984732824428,-3.7022900763358777,0.5386953735351562,0.06943184814453125,9.495403784179686,29.28294117647059
2025-10-20T14:29:08.951454,-1.2900763358778626,0.8244274809160306,-3.381679389312977,0.4644751220703125,-0.1197100830078125,9.361328491210937,29.28294117647059
2025-10-20T14:29:08.971412,-1.450381679389313,1.3740458015267176,-3.49618320610687,0.5434837768554687,0.15562310791015624,9.076418493652342,29.23588235294118
2025-10-20T14:29:08.994157,-1.3969465648854962,0.5954198473282443,-3.450381679389313,0.51714755859375,-0.06943184814453125,9.26316622314453,29.28294117647059
2025-10-20T14:29:09.012756,-1.3206106870229009,0.5725190839694656,-3.6412213740458017,0.6200982299804687,0.0383072265625,9.387664709472656,29.330000000000002
2025-10-20T14:29:09.031652,-1.2290076335877862,1.4045801526717556,-3.351145038167939,0.5386953735351562,-0.12449848632812499,9.193734375,29.471176470588237
2025-10-20T14:29:09.054193,-1.183206106870229,0.9694656488549618,-3.015267175572519,0.5291185668945312,-0.21787235107421873,9.574412438964844,29.330000000000002
2025-10-20T14:29:09.074072,-0.8091603053435115,0.15267175572519084,-2.854961832061069,0.6177040283203125,-0.16759411621093748,9.375693701171874,29.377058823529413
2025-10-20T14:29:09.091740,-0.8778625954198473,0.030534351145038167,-2.282442748091603,0.6177040283203125,-0.08379705810546874,9.327809667968749,29.377058823529413
2025-10-20T14:29:09.113727,-1.7099236641221374,0.4122137404580153,-2.2595419847328246,0.5602431884765625,0.009576806640625,9.519345800781249,29.377058823529413
2025-10-20T14:29:09.134042,-1.7557251908396947,1.0534351145038168,-2.404580152671756,0.488417138671875,0.26336218261718747,9.332598071289063,29.23588235294118
2025-10-20T14:29:09.151220,-2.0381679389312977,0.9923664122137404,-2.435114503816794,0.4740519287109375,0.11731588134765625,9.198522778320312,29.28294117647059
2025-10-20T14:29:09.173247,-2.0839694656488548,0.03816793893129771,-2.7022900763358777,0.469263525390625,0.023942016601562498,9.313444458007812,29.330000000000002
2025-10-20T14:29:09.194378,-2.5267175572519083,-0.16793893129770993,-2.5801526717557253,0.5530605834960938,-0.023942016601562498,9.064447485351561,29.28294117647059
2025-10-20T14:29:09.211342,-2.2442748091603053,-0.4580152671755725,-2.5419847328244276,0.6416460449218749,-0.033518823242187495,9.258377819824219,29.330000000000002
2025-10-20T14:29:09.233516,-1.816793893129771,-0.0916030534351145,-1.9694656488549618,0.46686932373046874,-0.2154781494140625,9.212887988281249,29.330000000000002
2025-10-20T14:29:09.256064,-2.1068702290076335,1.9465648854961832,-1.7557251908396947,0.7589619262695312,0.05746083984375,9.196128576660156,29.28294117647059
2025-10-20T14:29:09.273072,-1.5954198473282444,-0.11450381679389313,-2.0839694656488548,0.5339069702148437,0.24181436767578124,9.291896643066405,29.28294117647059
2025-10-20T14:29:09.295325,-1.702290076335878,-0.32061068702290074,-2.3587786259541983,0.4261678955078125,0.062249243164062495,9.342174877929686,29.377058823529413
2025-10-20T14:29:09.318354,-1.4961832061068703,-0.9694656488549618,-2.5343511450381677,0.33039982910156246,0.28969840087890625,9.481038574218749,29.23588235294118
2025-10-20T14:29:09.335282,-1.549618320610687,-1.2213740458015268,-2.732824427480916,0.6751648681640625,0.4525041137695312,9.222464794921875,29.377058823529413
2025-10-20T14:29:09.357622,-1.5419847328244274,-0.5648854961832062,-2.7786259541984735,0.5698199951171875,0.0,9.464279162597656,29.330000000000002
2025-10-20T14:29:09.380956,-2.6030534351145036,1.9389312977099236,-2.786259541984733,0.6105214233398437,0.39264907226562495,9.26316622314453,29.28294117647059
2025-10-20T14:29:09.397895,-3.1068702290076335,0.3282442748091603,-2.8091603053435112,0.5961562133789062,-0.03591302490234375,9.437942944335937,29.23588235294118
2025-10-20T14:29:09.419370,-2.9236641221374047,-0.7633587786259542,-2.885496183206107,0.5363011718749999,0.239420166015625,9.495403784179686,29.377058823529413
2025-10-20T14:29:09.442509,-3.2061068702290076,-0.37404580152671757,-2.6564885496183206,0.5985504150390625,-0.2442085693359375,9.375693701171874,29.424117647058825
2025-10-20T14:29:09.459418,-2.900763358778626,-0.16793893129770993,-3.16793893129771,0.5410895751953124,0.15562310791015624,9.162609753417968,29.330000000000002
2025-10-20T14:29:09.480158,-2.648854961832061,0.11450381679389313,-2.9236641221374047,0.5051765502929687,-0.1005564697265625,9.282319836425781,29.330000000000002
2025-10-20T14:29:09.502993,-2.33587786259542,0.648854961832061,-3.1908396946564888,0.7134720947265625,0.0909796630859375,9.404424121093749,29.377058823529413
2025-10-20T14:29:09.520973,-2.6412213740458017,0.2900763358778626,-2.687022900763359,0.5003881469726562,0.02154781494140625,9.421183532714844,29.28294117647059
2025-10-20T14:29:09.540988,-2.8702290076335877,0.15267175572519084,-2.8625954198473282,0.51714755859375,0.023942016601562498,9.320627062988281,29.330000000000002
2025-10-20T14:29:09.563846,-3.068702290076336,0.8091603053435115,-2.1526717557251906,0.39743747558593745,-0.14125789794921875,9.289502441406249,29.330000000000002
2025-10-20T14:29:09.582922,-2.030534351145038,1.1374045801526718,-1.9694656488549618,0.8212111694335937,-0.5386953735351562,9.22485899658203,29.28294117647059
2025-10-20T14:29:09.601514,-3.3893129770992365,0.816793893129771,-1.3740458015267176,0.7661445312499999,0.5793968017578125,9.337386474609374,29.377058823529413
2025-10-20T14:29:09.624065,-3.4656488549618323,-1.9236641221374047,-1.4045801526717556,0.2609679809570312,0.01915361328125,9.6151138671875,29.330000000000002
2025-10-20T14:29:09.644541,-3.6946564885496183,0.366412213740458,-1.0229007633587786,0.8164227661132812,-0.430956298828125,8.9255837890625,29.23588235294118
2025-10-20T14:29:09.661822,-3.9770992366412212,0.8625954198473282,-0.5419847328244275,0.4213794921875,-0.011971008300781249,9.141061938476563,29.330000000000002
2025-10-20T14:29:09.683926,-4.702290076335878,2.114503816793893,-0.45038167938931295,0.5027823486328125,-0.24660277099609373,9.334992272949219,29.28294117647059
2025-10-20T14:29:09.705674,-4.076335877862595,2.0381679389312977,-0.4732824427480916,1.1731588134765625,0.28012159423828126,9.047688073730468,29.23588235294118
2025-10-20T14:29:09.722603,-3.0381679389312977,-0.3816793893129771,-1.9465648854961832,0.9265560424804687,-0.03591302490234375,9.90241806640625,29.330000000000002
2025-10-20T14:29:09.744860,-2.8091603053435112,1.9389312977099236,-0.5343511450381679,0.13646949462890623,0.0430956298828125,9.756371765136718,29.28294117647059
2025-10-20T14:29:09.767536,-1.1221374045801527,0.8931297709923665,-0.5801526717557252,0.09816226806640624,0.0526724365234375,9.428366137695312,29.377058823529413
2025-10-20T14:29:09.784422,-0.7557251908396947,0.8549618320610687,-1.0610687022900764,0.3854664672851562,0.06703764648437499,9.56962403564453,29.330000000000002
2025-10-20T14:29:09.806990,-0.7633587786259542,0.9236641221374046,-1.1755725190839694,0.5003881469726562,-0.06703764648437499,9.442731347656249,29.28294117647059
2025-10-20T14:29:09.830253,-0.7480916030534351,0.015267175572519083,-1.0305343511450382,0.48123453369140623,0.062249243164062495,9.497797985839844,29.28294117647059
2025-10-20T14:29:09.847134,-0.7709923664122137,0.6641221374045801,-1.2213740458015268,0.4070142822265625,0.19153613281249998,9.351751684570312,29.330000000000002
2025-10-20T14:29:09.868193,-0.9694656488549618,0.7633587786259542,-1.3435114503816794,0.5674257934570313,0.13646949462890623,9.208099584960937,29.377058823529413
2025-10-20T14:29:09.891175,-0.9312977099236641,0.6717557251908397,-1.4198473282442747,0.5291185668945312,0.040701428222656245,9.200916979980468,29.28294117647059
2025-10-20T14:29:09.908521,-0.8396946564885496,0.7480916030534351,-1.2290076335877862,0.3902548706054687,0.19871873779296872,9.354145886230468,29.23588235294118
2025-10-20T14:29:09.928863,-1.0763358778625953,0.7022900763358778,-1.381679389312977,0.55545478515625,0.11731588134765625,9.320627062988281,29.330000000000002
2025-10-20T14:29:09.951722,-1.3587786259541985,0.45038167938931295,-1.4580152671755726,0.5410895751953124,0.0047884033203125,9.3852705078125,29.23588235294118
2025-10-20T14:29:09.970215,-1.3893129770992367,-0.16793893129770993,-1.3358778625954197,0.7302315063476562,-0.0143652099609375,9.457096557617186,29.330000000000002
2025-10-20T14:29:09.989905,-1.4961832061068703,0.3282442748091603,-1.3282442748091603,0.51714755859375,0.05746083984375,9.442731347656249,29.23588235294118
2025-10-20T14:29:10.012381,-1.5572519083969465,0.6412213740458015,-1.4351145038167938,0.7326257080078125,0.009576806640625,9.354145886230468,29.23588235294118
2025-10-20T14:29:10.031026,-1.3206106870229009,0.10687022900763359,-1.3053435114503817,0.6679822631835937,-0.03591302490234375,9.459490759277344,29.28294117647059
2025-10-20T14:29:10.050128,-1.3129770992366412,0.44274809160305345,-1.282442748091603,0.5770026000976562,0.09816226806640624,9.351751684570312,29.23588235294118
2025-10-20T14:29:10.072877,-1.4885496183206106,0.29770992366412213,-1.2061068702290076,0.5817910034179687,-0.10295067138671875,9.220070593261719,29.424117647058825
2025-10-20T14:29:10.092373,-1.450381679389313,0.5954198473282443,-1.099236641221374,0.5817910034179687,0.14125789794921875,9.26316622314453,29.330000000000002
2025-10-20T14:29:10.110427,-1.1297709923664123,0.4732824427480916,-1.2290076335877862,0.5243301635742187,0.033518823242187495,9.275137231445312,29.23588235294118
2025-10-20T14:29:10.132787,-1.213740458015267,0.1450381679389313,-1.16793893129771,0.4525041137695312,0.05985504150390625,9.210493786621093,29.330000000000002
2025-10-20T14:29:10.153598,-1.5267175572519085,0.13740458015267176,-1.2900763358778626,0.35673604736328124,0.15083470458984374,9.330203869628905,29.28294117647059
2025-10-20T14:29:10.170470,-1.450381679389313,-0.15267175572519084,-1.1068702290076335,0.612915625,0.06703764648437499,9.323021264648437,29.377058823529413
2025-10-20T14:29:10.192664,-1.6030534351145038,0.06870229007633588,-1.0,0.469263525390625,0.1771709228515625,9.488221179199218,29.377058823529413
2025-10-20T14:29:10.214771,-1.8244274809160306,0.32061068702290074,-1.0381679389312977,0.47884033203125,0.04548983154296875,9.497797985839844,29.28294117647059
2025-10-20T14:29:10.231668,-1.786259541984733,0.32061068702290074,-1.015267175572519,0.5458779785156249,-0.00718260498046875,9.265560424804686,29.330000000000002
2025-10-20T14:29:10.253848,-1.618320610687023,1.900763358778626,-0.9770992366412213,0.6488286499023437,-0.0526724365234375,9.342174877929686,29.377058823529413
2025-10-20T14:29:10.276891,-1.2061068702290076,-0.40458015267175573,-1.0229007633587786,0.3184288208007812,0.13168109130859373,9.244012609863281,29.330000000000002
2025-10-20T14:29:10.293889,-1.251908396946565,-0.46564885496183206,-1.2595419847328244,0.55545478515625,0.1771709228515625,9.418789331054686,29.330000000000002
2025-10-20T14:29:10.316224,-1.2366412213740459,-0.07633587786259542,-1.0,0.47884033203125,0.05985504150390625,9.327809667968749,29.28294117647059
2025-10-20T14:29:10.339547,-1.3206106870229009,1.7328244274809161,-1.1221374045801527,0.33758243408203126,0.07900865478515624,9.22485899658203,29.330000000000002
2025-10-20T14:29:10.356450,-1.4351145038167938,-0.2900763358778626,-1.1374045801526718,0.40462008056640625,0.1005564697265625,9.330203869628905,29.377058823529413
2025-10-20T14:29:10.377960,-1.3435114503816794,-0.3435114503816794,-1.1755725190839694,0.43574470214843747,0.05985504150390625,9.279925634765624,29.28294117647059
2025-10-20T14:29:10.401080,-1.450381679389313,-0.21374045801526717,-1.2671755725190839,0.469263525390625,0.11013327636718749,9.294290844726563,29.377058823529413
2025-10-20T14:29:10.418121,-1.282442748091603,-0.07633587786259542,-1.1526717557251909,0.4955997436523437,0.0718260498046875,9.409212524414063,29.28294117647059
2025-10-20T14:29:10.439094,-1.3511450381679388,-0.11450381679389313,-1.3358778625954197,0.5267243652343749,0.00239420166015625,9.299079248046874,29.377058823529413
2025-10-20T14:29:10.462161,-1.4961832061068703,-0.2366412213740458,-1.3587786259541985,0.488417138671875,0.06943184814453125,9.349357482910156,29.23588235294118
2025-10-20T14:29:10.479048,-1.366412213740458,-0.45038167938931295,-1.5725190839694656,0.5770026000976562,0.0909796630859375,9.466673364257812,29.377058823529413
2025-10-20T14:29:10.499880,-1.3511450381679388,-0.2366412213740458,-1.3129770992366412,0.39264907226562495,0.12210428466796874,9.289502441406249,29.23588235294118
2025-10-20T14:29:10.522804,-1.5801526717557253,-0.2366412213740458,-1.3893129770992367,0.49320554199218747,-0.016759411621093748,9.294290844726563,29.377058823529413
2025-10-20T14:29:10.540122,-1.6412213740458015,-0.3435114503816794,-1.4274809160305344,0.5506663818359374,0.06703764648437499,9.282319836425781,29.330000000000002
2025-10-20T14:29:10.560519,-1.5954198473282444,-0.3282442748091603,-1.4045801526717556,0.3112462158203125,0.08858546142578125,9.289502441406249,29.377058823529413
2025-10-20T14:29:10.583302,-1.6412213740458015,-0.37404580152671757,-1.83206106870229,0.5770026000976562,0.02154781494140625,9.265560424804686,29.330000000000002
2025-10-20T14:29:10.601082,-1.6488549618320612,-0.45038167938931295,-1.8396946564885497,0.584185205078125,0.1388636962890625,9.344569079589844,29.23588235294118
2025-10-20T14:29:10.621136,-1.4961832061068703,-0.183206106870229,-1.717557251908397,0.6057330200195312,-0.0909796630859375,9.313444458007812,29.28294117647059
2025-10-20T14:29:10.643764,-1.5954198473282444,-0.06870229007633588,-3.8625954198473282,0.5506663818359374,-0.11252747802734374,9.387664709472656,29.330000000000002
2025-10-20T14:29:10.662578,-1.5190839694656488,0.03816793893129771,-1.8549618320610688,0.5913678100585937,0.12449848632812499,9.284714038085937,29.377058823529413
2025-10-20T14:29:10.681675,-1.4198473282442747,-0.06870229007633588,-1.984732824427481,0.4740519287109375,-0.009576806640625,9.272743029785156,29.330000000000002
2025-10-20T14:29:10.704153,-1.5725190839694656,0.1450381679389313,-0.0916030534351145,0.565031591796875,0.011971008300781249,9.397241516113281,29.424117647058825
2025-10-20T14:29:10.723799,-1.4122137404580153,0.3053435114503817,-1.6793893129770991,0.5674257934570313,-0.1197100830078125,9.337386474609374,29.28294117647059
2025-10-20T14:29:10.741914,-1.6106870229007633,0.22900763358778625,-1.5572519083969465,0.689530078125,0.076614453125,9.366116894531249,29.424117647058825
2025-10-20T14:29:10.764078,-1.8778625954198473,0.7404580152671756,-1.2748091603053435,0.6560112548828124,-0.06703764648437499,9.466673364257812,29.424117647058825
2025-10-20T14:29:10.784841,-2.3053435114503817,0.6259541984732825,-1.0916030534351144,0.55545478515625,0.07900865478515624,9.26316622314453,29.330000000000002
2025-10-20T14:29:10.801747,-2.114503816793893,0.5267175572519084,-0.7480916030534351,0.6344634399414062,0.086191259765625,9.153032946777342,29.28294117647059
2025-10-20T14:29:10.823730,-0.0916030534351145,0.6030534351145038,-0.6106870229007634,0.6200982299804687,-0.16759411621093748,9.244012609863281,29.28294117647059
2025-10-20T14:29:10.845893,-2.1374045801526718,0.2366412213740458,-0.6717557251908397,0.6081272216796875,-0.08379705810546874,9.430760339355468,29.377058823529413
2025-10-20T14:29:10.862823,-2.099236641221374,0.44274809160305345,-0.45038167938931295,0.6679822631835937,-0.08140285644531249,9.2320416015625,29.23588235294118
2025-10-20T14:29:10.884861,-2.282442748091603,0.6946564885496184,-0.42748091603053434,0.6272808349609375,0.02154781494140625,9.198522778320312,29.377058823529413
2025-10-20T14:29:10.908176,-2.2595419847328246,0.5648854961832062,-0.33587786259541985,0.7565677246093749,0.15083470458984374,9.265560424804686,29.330000000000002
2025-10-20T14:29:10.925083,-2.1374045801526718,0.7022900763358778,-0.32061068702290074,0.622492431640625,0.07900865478515624,9.349357482910156,29.377058823529413
2025-10-20T14:29:10.946333,-1.9541984732824427,0.46564885496183206,-0.5725190839694656,0.6200982299804687,0.18435352783203124,9.459490759277344,29.28294117647059
2025-10-20T14:29:10.969551,-2.114503816793893,0.7633587786259542,-0.8396946564885496,0.6416460449218749,0.08140285644531249,9.330203869628905,29.28294117647059
2025-10-20T14:29:10.986866,-1.8549618320610688,0.6259541984732825,-1.0763358778625953,0.5482721801757812,0.14604630126953125,9.440337145996093,29.28294117647059
2025-10-20T14:29:11.006951,-2.0381679389312977,0.9465648854961832,-1.1908396946564885,0.6177040283203125,0.296881005859375,9.208099584960937,29.330000000000002
2025-10-20T14:29:11.030237,-0.015267175572519083,0.816793893129771,-1.297709923664122,0.565031591796875,0.5147533569335937,9.3086560546875,29.188823529411767
2025-10-20T14:29:11.048409,-2.381679389312977,0.8320610687022901,-1.2671755725190839,1.0031704956054688,0.0909796630859375,9.33978067626953,29.23588235294118
2025-10-20T14:29:11.067862,-2.7557251908396947,1.0610687022900764,-1.2595419847328244,0.7805097412109374,-0.05746083984375,9.229647399902344,29.23588235294118
2025-10-20T14:29:11.090474,-2.381679389312977,0.37404580152671757,-1.6030534351145038,0.5889736083984375,0.07422025146484375,9.488221179199218,29.28294117647059
2025-10-20T14:29:11.109480,-2.50381679389313,0.8854961832061069,-1.6106870229007633,0.5267243652343749,0.143652099609375,9.296685046386719,29.424117647058825
2025-10-20T14:29:11.127864,-2.50381679389313,0.6717557251908397,-1.8091603053435115,0.5003881469726562,0.14125789794921875,9.229647399902344,29.424117647058825
2025-10-20T14:29:11.149881,-2.3740458015267176,0.648854961832061,-1.900763358778626,0.5027823486328125,0.0143652099609375,9.327809667968749,29.377058823529413
2025-10-20T14:29:11.169747,-2.2977099236641223,0.7709923664122137,-1.702290076335878,0.39743747558593745,0.033518823242187495,9.33978067626953,29.424117647058825
2025-10-20T14:29:11.187305,-2.213740458015267,0.45038167938931295,-1.7786259541984732,0.6727706665039062,0.09576806640624999,9.368511096191405,29.28294117647059
2025-10-20T14:29:11.209340,-2.3053435114503817,-0.10687022900763359,-1.9083969465648856,0.689530078125,-0.033518823242187495,9.457096557617186,29.28294117647059
2025-10-20T14:29:11.230547,-2.122137404580153,0.06870229007633588,-1.8473282442748091,0.47165772705078124,-0.028730419921875,9.26316622314453,29.28294117647059
2025-10-20T14:29:11.247453,-3.8473282442748094,-0.05343511450381679,-1.8778625954198473,0.507570751953125,-0.05746083984375,9.330203869628905,29.330000000000002
2025-10-20T14:29:11.269458,-1.900763358778626,0.4580152671755725,-1.702290076335878,0.55545478515625,0.0143652099609375,9.361328491210937,29.23588235294118
2025-10-20T14:29:11.291461,-1.5572519083969465,0.1984732824427481,-1.5877862595419847,0.6009446166992187,-0.08379705810546874,9.236830004882812,29.377058823529413
2025-10-20T14:29:11.308362,-1.6030534351145038,0.2595419847328244,-1.5877862595419847,0.47884033203125,0.02154781494140625,9.423577734375,29.330000000000002
2025-10-20T14:29:11.330512,-1.297709923664122,0.0,-1.6106870229007633,0.4333505004882812,-0.03591302490234375,9.402029919433593,29.377058823529413
2025-10-20T14:29:11.353696,-1.4198473282442747,0.24427480916030533,-1.6030534351145038,0.4740519287109375,0.10773907470703124,9.210493786621093,29.28294117647059
2025-10-20T14:29:11.370590,-1.0610687022900764,0.13740458015267176,-1.16793893129771,0.47644613037109373,-0.028730419921875,9.481038574218749,29.330000000000002
2025-10-20T14:29:11.391846,-1.1145038167938932,0.3816793893129771,-1.0687022900763359,0.5147533569335937,0.031124621582031248,9.425971936035156,29.377058823529413
2025-10-20T14:29:11.415035,-1.2290076335877862,0.3969465648854962,-1.0687022900763359,0.3064578125,0.08379705810546874,9.485826977539062,29.23588235294118
2025-10-20T14:29:11.432394,-1.0763358778625953,0.22900763358778625,-1.099236641221374,0.43574470214843747,-0.0383072265625,9.284714038085937,29.377058823529413
2025-10-20T14:29:11.452738,-1.1145038167938932,0.31297709923664124,-0.9465648854961832,0.507570751953125,0.033518823242187495,9.423577734375,29.424117647058825
2025-10-20T14:29:11.475613,-1.3206106870229009,0.7251908396946565,-0.8778625954198473,0.41419688720703124,-0.12210428466796874,9.318232861328125,29.330000000000002
2025-10-20T14:29:11.493816,-0.8931297709923665,0.21374045801526717,-0.7786259541984732,0.4525041137695312,0.0909796630859375,9.289502441406249,29.188823529411767
2025-10-20T14:29:11.513205,-0.9541984732824428,0.022900763358778626,-0.8396946564885496,0.5793968017578125,0.105344873046875,9.464279162597656,29.28294117647059
2025-10-20T14:29:11.535771,-1.183206106870229,0.3816793893129771,-0.7786259541984732,0.5698199951171875,0.1484405029296875,9.464279162597656,29.330000000000002
2025-10-20T14:29:11.554811,-1.381679389312977,0.33587786259541985,-0.8625954198473282,0.44053310546874996,0.02154781494140625,9.334992272949219,29.330000000000002
2025-10-20T14:29:11.573327,-1.5572519083969465,0.061068702290076333,-0.8473282442748091,0.5889736083984375,0.086191259765625,9.198522778320312,29.330000000000002
2025-10-20T14:29:11.595553,-1.4351145038167938,0.22900763358778625,-0.9312977099236641,0.5746083984375,0.13407529296874998,9.366116894531249,29.23588235294118
2025-10-20T14:29:11.615905,-1.465648854961832,0.24427480916030533,-1.1755725190839694,0.49799394531249996,0.0383072265625,9.342174877929686,29.28294117647059
2025-10-20T14:29:11.633051,-1.6793893129770991,0.04580152671755725,-0.9923664122137404,0.5291185668945312,0.06464344482421874,9.368511096191405,29.23588235294118
2025-10-20T14:29:11.655215,-1.8625954198473282,0.15267175572519084,-1.297709923664122,0.46208092041015625,0.21308394775390624,9.476250170898437,29.330000000000002
2025-10-20T14:29:11.677083,-1.9312977099236641,-1.9236641221374047,-1.1221374045801527,0.48123453369140623,0.04548983154296875,9.409212524414063,29.471176470588237
2025-10-20T14:29:11.693981,-0.05343511450381679,-0.09923664122137404,-1.251908396946565,0.4955997436523437,0.062249243164062495,9.375693701171874,29.23588235294118
2025-10-20T14:29:11.716183,-1.9083969465648856,-0.33587786259541985,-1.3358778625954197,0.5027823486328125,0.12210428466796874,9.337386474609374,29.330000000000002
2025-10-20T14:29:11.738918,-1.7633587786259541,0.030534351145038167,-1.2061068702290076,0.584185205078125,0.2825157958984375,9.404424121093749,29.28294117647059
2025-10-20T14:29:11.755823,-1.8244274809160306,-0.030534351145038167,-1.450381679389313,0.4740519287109375,0.12449848632812499,9.222464794921875,29.424117647058825
2025-10-20T14:29:11.778260,-2.213740458015267,-0.6259541984732825,-1.2366412213740459,0.5530605834960938,0.0143652099609375,9.239224206542968,29.377058823529413
2025-10-20T14:29:11.801687,-2.099236641221374,-0.4580152671755725,-1.3053435114503817,0.5003881469726562,0.19632453613281248,9.437942944335937,29.377058823529413
2025-10-20T14:29:11.818562,-2.4198473282442747,-0.46564885496183206,-1.1755725190839694,0.5051765502929687,0.01915361328125,9.275137231445312,29.23588235294118
2025-10-20T14:29:11.840113,-2.5877862595419847,-1.8015267175572518,-1.0458015267175573,0.565031591796875,0.062249243164062495,9.210493786621093,29.377058823529413
2025-10-20T14:29:11.863440,-2.618320610687023,-0.08396946564885496,-1.0763358778625953,0.3950432739257812,0.055066638183593745,9.227253198242186,29.23588235294118
2025-10-20T14:29:11.880330,-2.381679389312977,-0.022900763358778626,-1.16793893129771,0.59376201171875,-0.009576806640625,9.289502441406249,29.377058823529413
2025-10-20T14:29:11.901117,-2.5114503816793894,-0.19083969465648856,-1.0687022900763359,0.488417138671875,-0.23702596435546874,9.368511096191405,29.330000000000002
2025-10-20T14:29:11.924045,-2.1297709923664123,-0.5801526717557252,-1.3587786259541985,0.5817910034179687,0.086191259765625,9.332598071289063,29.28294117647059
2025-10-20T14:29:11.941786,-1.1450381679389312,-0.4961832061068702,-1.282442748091603,0.5578489868164063,0.07900865478515624,9.160215551757812,29.28294117647059
2025-10-20T14:29:11.961517,-1.099236641221374,-0.7175572519083969,-1.251908396946565,0.7230489013671875,-0.0526724365234375,9.634267480468749,29.28294117647059
2025-10-20T14:29:11.984171,-0.10687022900763359,-0.5725190839694656,-0.8015267175572519,0.5530605834960938,0.18914193115234373,9.507374792480467,29.28294117647059
2025-10-20T14:29:12.003191,-2.282442748091603,0.0,-1.0305343511450382,0.5243301635742187,-0.05746083984375,9.390058911132812,29.377058823529413
2025-10-20T14:29:12.021611,-2.1755725190839694,0.1984732824427481,-1.0610687022900764,0.5913678100585937,0.23702596435546874,9.394847314453125,29.330000000000002
2025-10-20T14:29:12.044036,-2.4732824427480917,-0.030534351145038167,-0.8702290076335878,0.48123453369140623,-0.1580173095703125,9.311050256347656,29.23588235294118
2025-10-20T14:29:12.064350,-2.6259541984732824,1.900763358778626,-0.9847328244274809,0.5698199951171875,0.19632453613281248,9.129090930175781,29.377058823529413
2025-10-20T14:29:12.081420,-2.4885496183206106,-0.10687022900763359,-0.8396946564885496,0.47884033203125,-0.076614453125,9.253589416503905,29.28294117647059
2025-10-20T14:29:12.103365,-2.5114503816793894,0.366412213740458,-0.7938931297709924,0.6775590698242188,0.031124621582031248,9.227253198242186,29.28294117647059
2025-10-20T14:29:12.124956,-2.49618320610687,0.11450381679389313,-0.6564885496183206,0.7015010864257812,-0.023942016601562498,9.30147344970703,29.23588235294118
2025-10-20T14:29:12.141867,-2.282442748091603,0.4122137404580153,-0.648854961832061,0.45968671875,-0.1197100830078125,9.270348828125,29.28294117647059
2025-10-20T14:29:12.163737,-2.213740458015267,0.0916030534351145,-0.7251908396946565,1.0223241088867188,-0.028730419921875,9.4618849609375,29.28294117647059
2025-10-20T14:29:12.186192,-2.3206106870229006,0.40458015267175573,-0.7251908396946565,0.6943184814453125,-0.0909796630859375,9.342174877929686,29.377058823529413
2025-10-20T14:29:12.203134,-1.8396946564885497,1.0,-0.8702290076335878,0.7757213378906249,-0.2154781494140625,9.026140258789061,29.23588235294118
2025-10-20T14:29:12.225393,-1.900763358778626,1.8702290076335877,-0.4122137404580153,0.9074024291992187,-0.13168109130859373,9.095572106933593,29.23588235294118
2025-10-20T14:29:12.248472,-1.7786259541984732,1.4961832061068703,-0.4198473282442748,0.23702596435546874,-0.05027823486328125,8.990227233886719,29.424117647058825
2025-10-20T14:29:12.265404,-2.33587786259542,0.9389312977099237,-0.3435114503816794,-0.10773907470703124,-0.031124621582031248,9.373299499511718,29.377058823529413
2025-10-20T14:29:12.286353,-2.6564885496183206,0.7862595419847328,-0.46564885496183206,0.373495458984375,0.29927520751953124,9.160215551757812,29.330000000000002
2025-10-20T14:29:12.309430,-2.5572519083969465,1.4122137404580153,-0.6259541984732825,1.2904746948242187,0.26336218261718747,9.018957653808593,29.23588235294118
2025-10-20T14:29:12.327192,-2.7557251908396947,2.3206106870229006,-0.9465648854961832,1.2761094848632812,0.07900865478515624,8.908824377441405,29.424117647058825
2025-10-20T14:29:12.346897,-3.572519083969466,2.2061068702290076,-1.083969465648855,1.1563994018554686,0.3016694091796875,8.985438830566405,29.28294117647059
2025-10-20T14:29:12.369562,-3.7480916030534353,2.351145038167939,-1.3435114503816794,0.9720458740234375,0.15083470458984374,8.951920007324219,29.471176470588237
2025-10-20T14:29:12.388658,-3.5343511450381677,2.801526717557252,-1.6946564885496183,0.5793968017578125,0.0383072265625,8.999804040527343,29.330000000000002
2025-10-20T14:29:12.407038,-3.687022900763359,2.648854961832061,-2.053435114503817,0.258573779296875,0.2705447875976562,9.09796630859375,29.28294117647059
2025-10-20T14:29:12.429343,-4.0534351145038165,2.366412213740458,-2.381679389312977,0.39983167724609375,0.3399766357421875,9.153032946777342,29.330000000000002
2025-10-20T14:29:12.449720,-4.2748091603053435,2.5419847328244276,-2.49618320610687,0.32082302246093747,0.5602431884765625,9.203311181640624,29.377058823529413
2025-10-20T14:29:12.466890,-4.312977099236641,2.351145038167939,-2.6946564885496183,0.1867477294921875,0.44532150878906246,9.229647399902344,29.330000000000002
2025-10-20T14:29:12.488797,-4.984732824427481,2.0916030534351147,-2.8702290076335877,0.01915361328125,0.258573779296875,9.100360510253905,29.330000000000002
2025-10-20T14:29:12.510445,-4.6106870229007635,2.648854961832061,-3.030534351145038,-0.10295067138671875,-0.033518823242187495,9.323021264648437,29.28294117647059
2025-10-20T14:29:12.527331,-4.0534351145038165,3.0839694656488548,-2.9160305343511452,-0.23702596435546874,0.06464344482421874,9.119514123535156,29.330000000000002
2025-10-20T14:29:12.549182,-3.7022900763358777,2.0,-2.618320610687023,-0.36391865234375,0.076614453125,9.165003955078124,29.377058823529413
2025-10-20T14:29:12.571706,-3.6946564885496183,2.015267175572519,-2.5572519083969465,-0.39983167724609375,0.22026655273437498,9.356540087890625,29.330000000000002
2025-10-20T14:29:12.588614,-3.4885496183206106,0.8473282442748091,-2.2595419847328246,0.16280571289062498,0.143652099609375,9.323021264648437,29.28294117647059
2025-10-20T14:29:12.610530,-3.068702290076336,1.5190839694656488,-2.3740458015267176,0.5147533569335937,-0.15083470458984374,10.211270080566406,29.377058823529413
2025-10-20T14:29:12.634469,-2.8625954198473282,1.0,-2.0916030534351147,0.33518823242187495,0.06464344482421874,9.478644372558593,29.377058823529413
2025-10-20T14:29:12.651611,-2.5572519083969465,0.8473282442748091,-2.0839694656488548,0.6488286499023437,0.047884033203124995,9.536105212402344,29.23588235294118
2025-10-20T14:29:12.672982,-2.4122137404580153,1.0610687022900764,-1.702290076335878,0.7326257080078125,-0.14604630126953125,9.5001921875,29.28294117647059
2025-10-20T14:29:12.696158,-2.114503816793893,0.916030534351145,-1.4198473282442747,0.16280571289062498,-0.1484405029296875,9.478644372558593,29.28294117647059
2025-10-20T14:29:12.713043,-1.6564885496183206,0.6335877862595419,-1.16793893129771,-0.22026655273437498,-0.16280571289062498,9.572018237304688,29.330000000000002
2025-10-20T14:29:12.733863,-1.3587786259541985,0.32061068702290074,-0.6564885496183206,-0.2059013427734375,-0.08379705810546874,9.74200655517578,29.28294117647059
2025-10-20T14:29:12.756992,-1.0229007633587786,-0.22137404580152673,-0.2366412213740458,0.4381389038085937,-0.17477672119140625,9.897629663085937,29.330000000000002
2025-10-20T14:29:12.774330,-0.9923664122137404,-0.3053435114503817,0.3053435114503817,0.8547299926757812,-0.1149216796875,9.64623848876953,29.28294117647059
2025-10-20T14:29:12.794857,-1.2900763358778626,0.1450381679389313,0.6335877862595419,0.718260498046875,0.0430956298828125,9.667786303710937,29.28294117647059
2025-10-20T14:29:12.817744,-1.6259541984732824,-0.11450381679389313,0.916030534351145,0.40462008056640625,0.4477157104492187,9.74200655517578,29.330000000000002
2025-10-20T14:29:12.835511,-1.4122137404580153,0.1297709923664122,1.8015267175572518,-0.2059013427734375,0.22744915771484372,9.794678991699218,29.377058823529413
2025-10-20T14:29:12.855765,-1.2748091603053435,1.9236641221374047,2.572519083969466,-0.4908113403320312,0.26336218261718747,9.658209497070311,29.330000000000002
2025-10-20T14:29:12.878522,-1.2748091603053435,-0.19083969465648856,3.404580152671756,-0.5482721801757812,0.28490999755859375,9.751583361816406,29.377058823529413
2025-10-20T14:29:12.896712,-1.0305343511450382,-1.8702290076335877,4.3893129770992365,-0.4740519287109375,-0.2920926025390625,9.840168823242188,29.28294117647059
2025-10-20T14:29:12.916251,-1.083969465648855,-0.22900763358778625,4.572519083969466,-0.06703764648437499,-1.6400281372070311,10.04846436767578,29.28294117647059
2025-10-20T14:29:12.938732,1.7251908396946565,1.1221374045801527,3.6412213740458017,4.352658618164062,-3.6487633300781246,7.651868505859374,29.28294117647059
2025-10-20T14:29:12.957368,10.251908396946565,2.0839694656488548,1.099236641221374,6.028599780273437,-2.0159177978515626,6.861781958007812,29.23588235294118
2025-10-20T14:29:12.976404,18.557251908396946,1.3969465648854962,-1.7786259541984732,4.206612316894531,-2.8203695556640622,9.567229833984374,29.377058823529413
2025-10-20T14:29:12.999012,23.610687022900763,5.0534351145038165,-2.7404580152671754,-0.6847416748046875,0.39983167724609375,10.046070166015625,29.330000000000002
2025-10-20T14:29:13.018523,15.312977099236642,3.687022900763359,-2.969465648854962,-1.956062756347656,2.2266075439453124,9.124302526855468,29.330000000000002
2025-10-20T14:29:13.036610,12.534351145038167,5.190839694656488,-3.145038167938931,-1.898601916503906,0.8355763793945312,9.09796630859375,29.28294117647059
2025-10-20T14:29:13.058689,16.442748091603054,1.1374045801526718,-2.6030534351145036,0.23223756103515625,1.7286135986328124,9.543287817382812,29.330000000000002
2025-10-20T14:29:13.079075,12.083969465648854,0.8702290076335878,-2.404580152671756,1.7525556152343749,0.565031591796875,9.97903251953125,29.330000000000002
2025-10-20T14:29:13.096271,6.66412213740458,5.0458015267175576,-3.0839694656488548,3.0262708984374997,0.689530078125,8.966285217285156,29.377058823529413
2025-10-20T14:29:13.118325,6.885496183206107,3.5267175572519083,-3.9923664122137406,0.2346317626953125,-0.03591302490234375,8.801085302734375,29.424117647058825
2025-10-20T14:29:13.140196,6.5038167938931295,3.3206106870229006,-4.66412213740458,-0.44053310546874996,1.0342951171875,9.33978067626953,29.377058823529413
2025-10-20T14:29:13.159218,5.221374045801527,2.8091603053435112,-4.145038167938932,-0.031124621582031248,0.928950244140625,9.952696301269532,29.330000000000002
2025-10-20T14:29:13.181452,0.22137404580152673,2.5343511450381677,-2.519083969465649,0.21068974609375,0.842758984375,9.9981861328125,29.424117647058825
2025-10-20T14:29:13.201084,-7.282442748091603,2.5572519083969465,-0.6793893129770993,0.8259995727539062,1.1659762084960936,9.241618408203124,29.330000000000002
2025-10-20T14:29:13.219598,-7.312977099236641,2.4198473282442747,0.31297709923664124,0.9409212524414062,0.19871873779296872,9.038111267089842,29.377058823529413
2025-10-20T14:29:13.242081,-4.748091603053435,1.5114503816793894,0.48091603053435117,1.6232687255859375,-1.4891934326171874,9.79946739501953,29.330000000000002
2025-10-20T14:29:13.262568,-4.1603053435114505,0.5725190839694656,0.6870229007633588,0.3950432739257812,-1.158793603515625,9.813832604980469,29.330000000000002
2025-10-20T14:29:13.280243,-5.213740458015267,1.6259541984732824,-0.03816793893129771,0.32561142578124996,0.12449848632812499,9.399635717773437,29.377058823529413
2025-10-20T14:29:13.302252,-3.9389312977099236,3.6030534351145036,0.13740458015267176,-0.737414111328125,0.9720458740234375,8.927977990722656,29.330000000000002
2025-10-20T14:29:13.322663,-0.8091603053435115,1.5038167938931297,-0.22900763358778625,0.2442085693359375,0.4213794921875,8.997409838867187,29.28294117647059
2025-10-20T14:29:13.339928,2.717557251908397,1.2595419847328244,0.09923664122137404,0.7805097412109374,0.49799394531249996,9.504980590820312,29.28294117647059
2025-10-20T14:29:13.361954,3.3740458015267176,0.35877862595419846,-1.9541984732824427,0.2657563842773437,0.38786066894531246,9.160215551757812,29.330000000000002
2025-10-20T14:29:13.383776,2.83206106870229,-0.19083969465648856,-0.5190839694656488,0.13646949462890623,0.6105214233398437,9.014169250488282,29.377058823529413
2025-10-20T14:29:13.400673,6.847328244274809,1.0610687022900764,-1.7328244274809161,-0.40940848388671874,0.6416460449218749,8.91840118408203,29.330000000000002
2025-10-20T14:29:13.422800,9.404580152671755,0.2900763358778626,-2.633587786259542,0.229843359375,0.6655880615234374,9.188945971679686,29.28294117647059
2025-10-20T14:29:13.445427,11.885496183206106,-1.1908396946564885,-3.1603053435114505,0.5315127685546874,1.707065783691406,9.5001921875,29.188823529411767
2025-10-20T14:29:13.462353,11.465648854961833,-1.5801526717557253,-3.633587786259542,0.37828386230468747,1.0414777221679687,9.342174877929686,29.330000000000002
2025-10-20T14:29:13.484392,10.557251908396946,1.099236641221374,-3.7938931297709924,0.40462008056640625,1.2114660400390624,9.277531433105468,29.28294117647059
2025-10-20T14:29:13.507794,12.725190839694656,0.8244274809160306,-4.137404580152672,0.6344634399414062,0.9911994873046874,9.318232861328125,29.424117647058825
2025-10-20T14:29:13.524725,14.206106870229007,1.4961832061068703,-4.083969465648855,0.5746083984375,1.0223241088867188,9.244012609863281,29.330000000000002
2025-10-20T14:29:13.546872,13.16030534351145,0.8091603053435115,-5.8396946564885495,0.7565677246093749,1.209071838378906,8.75320126953125,29.330000000000002
2025-10-20T14:29:13.570410,10.938931297709924,1.4045801526717556,-3.4198473282442747,0.06703764648437499,0.5147533569335937,9.306261853027344,29.377058823529413
2025-10-20T14:29:13.587434,9.541984732824428,1.3129770992366412,-3.015267175572519,0.5530605834960938,1.3263877197265623,8.927977990722656,29.28294117647059
2025-10-20T14:29:13.608013,8.83206106870229,1.1221374045801527,-2.3893129770992365,0.7757213378906249,0.8116343627929687,9.631873278808593,29.28294117647059
