timestamp,gyro_x,gyro_y,gyro_z,acc_x,acc_y,acc_z,temp
2025-10-20T14:39:51.827104,0.0,0.0,0.0,0.0,1.5825672973632812,9.330203869628905,27.87117647058824
2025-10-20T14:39:51.846858,-3.954198473282443,3.16793893129771,0.4351145038167939,0.32561142578124996,1.7549498168945312,9.473855969238281,27.965294117647062
2025-10-20T14:39:51.863727,-6.0534351145038165,0.37404580152671757,-1.0076335877862594,0.18435352783203124,1.66636435546875,9.497797985839844,28.106470588235297
2025-10-20T14:39:51.880527,-6.534351145038168,0.48091603053435117,-1.4809160305343512,0.29927520751953124,1.7310078002929687,9.270348828125,28.012352941176474
2025-10-20T14:39:51.897772,-6.816793893129771,0.31297709923664124,-1.6717557251908397,0.36391865234375,1.697488977050781,9.334992272949219,28.106470588235297
2025-10-20T14:39:51.914625,-7.717557251908397,0.6183206106870229,-1.786259541984733,0.29448680419921874,1.7860744384765623,9.323021264648437,28.012352941176474
2025-10-20T14:39:51.931458,-8.274809160305344,0.7251908396946565,-1.9770992366412214,0.2561795776367187,1.7094599853515624,9.366116894531249,28.012352941176474
2025-10-20T14:39:51.948267,-8.786259541984732,0.7786259541984732,-2.2519083969465647,0.24181436767578124,1.6424223388671875,9.390058911132812,28.059411764705885
2025-10-20T14:39:51.965049,-9.50381679389313,1.099236641221374,-2.435114503816794,0.15322890625,1.5969325073242187,9.409212524414063,28.012352941176474
2025-10-20T14:39:51.981825,-10.068702290076336,1.0916030534351144,-2.2900763358778624,0.23223756103515625,1.62805712890625,9.421183532714844,28.012352941176474
2025-10-20T14:39:51.998604,-10.923664122137405,1.366412213740458,-2.5114503816793894,0.4429273071289062,1.7980454467773437,9.37808790283203,28.012352941176474
2025-10-20T14:39:52.015400,-11.557251908396946,1.6106870229007633,-2.4580152671755724,0.3399766357421875,1.5466542724609373,9.528922607421874,28.012352941176474
2025-10-20T14:39:52.032181,-12.48091603053435,1.5114503816793894,-2.519083969465649,0.38786066894531246,1.6352397338867186,9.390058911132812,28.012352941176474
2025-10-20T14:39:52.048956,-13.045801526717558,1.5877862595419847,-2.519083969465649,0.4572925170898437,1.5921441040039062,9.30147344970703,28.012352941176474
2025-10-20T14:39:52.065733,-13.801526717557252,1.6870229007633588,-2.7022900763358777,0.38307226562499996,1.4772224243164063,9.303867651367186,28.106470588235297
2025-10-20T14:39:52.082506,-13.992366412213741,0.022900763358778626,-2.66412213740458,0.40940848388671874,1.4820108276367188,9.409212524414063,28.106470588235297
2025-10-20T14:39:52.099293,-14.229007633587786,2.053435114503817,-2.9389312977099236,0.3399766357421875,1.4053963745117186,9.354145886230468,28.012352941176474
2025-10-20T14:39:52.116072,-14.389312977099237,2.1374045801526718,-3.16793893129771,0.3902548706054687,1.3239935180664062,9.311050256347656,28.059411764705885
2025-10-20T14:39:52.132851,-13.969465648854962,2.3282442748091605,-3.1297709923664123,0.430956298828125,1.3120225097656248,9.229647399902344,27.965294117647062
2025-10-20T14:39:52.149623,-13.603053435114504,2.633587786259542,-3.4427480916030535,0.19393033447265623,1.2593500732421874,9.210493786621093,28.15352941176471
2025-10-20T14:39:52.167104,-13.15267175572519,2.7404580152671754,-3.5419847328244276,0.33518823242187495,1.2593500732421874,9.215282189941405,27.965294117647062
2025-10-20T14:39:52.183912,-12.541984732824428,2.4656488549618323,-3.4885496183206106,0.277727392578125,1.2401964599609374,9.246406811523437,28.059411764705885
2025-10-20T14:39:52.200708,-11.98473282442748,2.7022900763358777,-3.519083969465649,0.21068974609375,1.1755530151367186,9.299079248046874,28.15352941176471
2025-10-20T14:39:52.217488,-11.290076335877863,2.8625954198473282,-3.450381679389313,0.1484405029296875,1.1420341918945311,9.2320416015625,28.15352941176471
2025-10-20T14:39:52.234264,-10.633587786259541,2.435114503816794,-3.4122137404580153,0.1197100830078125,1.1563994018554686,9.157821350097656,28.15352941176471
2025-10-20T14:39:52.251051,-9.67175572519084,2.5801526717557253,-3.450381679389313,0.1149216796875,1.1133037719726562,9.332598071289063,28.106470588235297
2025-10-20T14:39:52.267836,-8.717557251908397,2.4122137404580153,-3.4427480916030535,0.12689268798828124,1.1324573852539062,9.284714038085937,28.106470588235297
2025-10-20T14:39:52.284620,-7.709923664122138,2.122137404580153,-3.7251908396946565,0.15322890625,1.0749965454101562,9.303867651367186,28.012352941176474
2025-10-20T14:39:52.301413,-6.908396946564886,1.8625954198473282,-3.9083969465648853,0.10295067138671875,0.9959878906249999,9.253589416503905,28.106470588235297
2025-10-20T14:39:52.318212,-5.900763358778626,1.5648854961832062,-4.2748091603053435,0.20350714111328125,1.0271125122070313,9.153032946777342,28.106470588235297
2025-10-20T14:39:52.335030,-5.022900763358779,1.3435114503816794,-4.534351145038168,0.19393033447265623,1.0462661254882812,9.234435803222656,28.15352941176471
2025-10-20T14:39:52.351821,-4.572519083969466,1.3282442748091603,-4.854961832061068,0.2561795776367187,1.0941501586914062,9.265560424804686,28.059411764705885
2025-10-20T14:39:52.368605,-4.2748091603053435,1.5572519083969465,-5.198473282442748,0.296881005859375,1.024718310546875,9.215282189941405,28.106470588235297
2025-10-20T14:39:52.385386,-4.351145038167939,1.3740458015267176,-5.526717557251908,0.2825157958984375,1.0007762939453124,9.208099584960937,28.106470588235297
2025-10-20T14:39:52.402192,-4.748091603053435,1.5038167938931297,-5.763358778625954,0.20829554443359374,1.0199299072265624,9.066841687011719,28.20058823529412
2025-10-20T14:39:52.419181,-4.809160305343512,1.5877862595419847,-6.106870229007634,0.22744915771484372,0.9720458740234375,9.325415466308593,28.012352941176474
2025-10-20T14:39:52.435988,-5.175572519083969,1.702290076335878,-6.6106870229007635,0.22505495605468748,0.9050082275390624,9.217676391601563,28.106470588235297
2025-10-20T14:39:52.452773,-5.488549618320611,1.6106870229007633,-6.770992366412214,0.29927520751953124,0.852335791015625,9.222464794921875,28.106470588235297
2025-10-20T14:39:52.469552,-6.015267175572519,1.6106870229007633,-6.984732824427481,0.33758243408203126,0.7781155395507812,9.289502441406249,28.953529411764706
2025-10-20T14:39:52.486331,-6.511450381679389,1.7099236641221374,-7.229007633587786,0.2920926025390625,0.7685387329101562,9.282319836425781,28.106470588235297
2025-10-20T14:39:52.503119,-7.198473282442748,1.4351145038167938,-7.33587786259542,0.27293898925781246,0.7302315063476562,9.191340173339842,28.106470588235297
2025-10-20T14:39:52.519897,-7.374045801526718,1.1297709923664123,-7.32824427480916,0.21787235107421873,0.6679822631835937,9.241618408203124,28.20058823529412
2025-10-20T14:39:52.536671,-7.473282442748092,1.0610687022900764,-7.396946564885496,0.23223756103515625,0.6655880615234374,9.193734375,28.20058823529412
2025-10-20T14:39:52.553446,-7.778625954198473,0.9541984732824428,-7.320610687022901,0.2657563842773437,0.5961562133789062,9.198522778320312,28.106470588235297
2025-10-20T14:39:52.570226,-8.16030534351145,1.0305343511450382,-7.229007633587786,0.28012159423828126,0.5889736083984375,9.205705383300781,28.106470588235297
2025-10-20T14:39:52.586999,-8.366412213740459,0.9923664122137404,-7.152671755725191,0.3280056274414062,0.565031591796875,9.1554271484375,28.15352941176471
2025-10-20T14:39:52.603791,-8.816793893129772,1.0229007633587786,-6.923664122137405,0.18914193115234373,0.5770026000976562,9.172186560058593,28.059411764705885
2025-10-20T14:39:52.620573,-9.076335877862595,1.0534351145038168,-6.900763358778626,0.21787235107421873,0.5386953735351562,9.277531433105468,28.15352941176471
2025-10-20T14:39:52.637347,-9.19083969465649,0.9847328244274809,-6.603053435114504,0.239420166015625,0.5626373901367188,9.138667736816405,28.15352941176471
2025-10-20T14:39:52.654115,-9.335877862595419,0.9618320610687023,-6.450381679389313,0.27293898925781246,0.5458779785156249,9.210493786621093,28.15352941176471
2025-10-20T14:39:52.671100,-9.450381679389313,0.7557251908396947,-6.312977099236641,0.20350714111328125,0.5578489868164063,9.323021264648437,28.106470588235297
2025-10-20T14:39:52.687914,-9.381679389312977,0.7175572519083969,-6.122137404580153,0.1005564697265625,0.5363011718749999,9.222464794921875,28.106470588235297
2025-10-20T14:39:52.704773,-9.557251908396946,0.7862595419847328,-5.679389312977099,0.0526724365234375,0.4955997436523437,9.239224206542968,27.494705882352942
2025-10-20T14:39:52.721606,-9.717557251908397,0.5190839694656488,-5.511450381679389,0.02633621826171875,0.40940848388671874,9.313444458007812,28.106470588235297
2025-10-20T14:39:52.738400,-9.725190839694656,0.42748091603053434,-5.3816793893129775,0.031124621582031248,0.4213794921875,9.227253198242186,28.20058823529412
2025-10-20T14:39:52.755168,-9.450381679389313,0.4351145038167939,-5.076335877862595,0.3016694091796875,0.3854664672851562,9.37808790283203,27.494705882352942
2025-10-20T14:39:52.771964,-9.290076335877863,0.12213740458015267,-4.961832061068702,0.21308394775390624,0.2753331909179687,9.265560424804686,28.15352941176471
2025-10-20T14:39:52.789139,-9.473282442748092,0.35877862595419846,-4.702290076335878,0.08858546142578125,0.28012159423828126,9.351751684570312,28.059411764705885
2025-10-20T14:39:52.806015,-9.396946564885496,0.19083969465648856,-4.6106870229007635,0.12449848632812499,0.1867477294921875,9.210493786621093,27.494705882352942
2025-10-20T14:39:52.822814,-9.15267175572519,0.0916030534351145,-4.450381679389313,0.16041151123046873,0.14125789794921875,9.356540087890625,28.15352941176471
2025-10-20T14:39:52.839583,-8.82442748091603,-0.007633587786259542,-4.061068702290076,0.14125789794921875,0.16041151123046873,9.380482104492186,28.15352941176471
2025-10-20T14:39:52.856356,-8.511450381679388,-1.9541984732824427,-3.8625954198473282,0.181959326171875,0.39743747558593745,9.344569079589844,28.15352941176471
2025-10-20T14:39:52.873130,-8.114503816793894,0.0916030534351145,-3.6259541984732824,0.055066638183593745,0.09576806640624999,9.303867651367186,28.15352941176471
2025-10-20T14:39:52.889959,-7.824427480916031,-0.16030534351145037,-3.549618320610687,0.13168109130859373,0.08858546142578125,9.267954626464844,28.15352941176471
2025-10-20T14:39:52.906743,-7.1603053435114505,-0.20610687022900764,-3.618320610687023,0.076614453125,0.086191259765625,9.334992272949219,28.15352941176471
2025-10-20T14:39:52.923520,-6.412213740458015,-0.40458015267175573,-3.6030534351145036,0.0430956298828125,0.0,9.45470235595703,27.494705882352942
2025-10-20T14:39:52.940295,-5.770992366412214,-0.5725190839694656,-3.687022900763359,0.01915361328125,0.10295067138671875,9.425971936035156,28.906470588235294
2025-10-20T14:39:52.957068,-5.038167938931298,-0.8244274809160306,-3.763358778625954,-0.0047884033203125,0.143652099609375,9.323021264648437,28.906470588235294
2025-10-20T14:39:52.973842,-4.343511450381679,-1.0687022900763359,-4.129770992366412,0.047884033203124995,0.17238251953125,9.363722692871093,27.494705882352942
2025-10-20T14:39:52.990616,-3.8473282442748094,-1.4351145038167938,-4.114503816793893,0.09576806640624999,0.2154781494140625,9.26316622314453,28.15352941176471
2025-10-20T14:39:53.007405,-3.1603053435114505,-1.4885496183206106,-4.312977099236641,0.11731588134765625,0.18435352783203124,9.246406811523437,27.494705882352942
2025-10-20T14:39:53.024375,-2.4198473282442747,-1.6793893129770991,-4.549618320610687,0.12689268798828124,0.2537853759765625,9.234435803222656,28.20058823529412
2025-10-20T14:39:53.041167,-1.4732824427480915,-1.7557251908396947,-4.748091603053435,0.13168109130859373,0.23223756103515625,9.220070593261719,28.20058823529412
2025-10-20T14:39:53.057943,-0.9007633587786259,-1.8549618320610688,-4.763358778625954,0.22266075439453123,0.277727392578125,9.196128576660156,28.20058823529412
2025-10-20T14:39:53.074716,-0.2366412213740458,-1.6946564885496183,-4.748091603053435,0.26336218261718747,0.19871873779296872,9.3086560546875,27.541764705882354
2025-10-20T14:39:53.091502,0.3816793893129771,-1.8015267175572518,-4.572519083969466,0.29927520751953124,0.21068974609375,9.344569079589844,28.20058823529412
2025-10-20T14:39:53.108283,1.0687022900763359,-1.5419847328244274,-4.4961832061068705,0.296881005859375,0.076614453125,9.3852705078125,28.20058823529412
2025-10-20T14:39:53.125056,1.8396946564885497,-1.5648854961832062,-4.114503816793893,0.2920926025390625,0.0526724365234375,9.433154541015625,28.20058823529412
2025-10-20T14:39:53.141837,2.1297709923664123,-1.618320610687023,-3.801526717557252,0.28730419921875,-0.016759411621093748,9.497797985839844,28.15352941176471
2025-10-20T14:39:53.158614,2.6412213740458017,-1.5648854961832062,-3.267175572519084,0.22266075439453123,-0.08140285644531249,9.406818322753905,27.494705882352942
2025-10-20T14:39:53.175399,2.5572519083969465,-1.6030534351145038,-2.6106870229007635,0.28490999755859375,0.0143652099609375,9.445125549316407,27.494705882352942
2025-10-20T14:39:53.192184,2.9160305343511452,-1.6946564885496183,-2.045801526717557,0.23702596435546874,-0.009576806640625,9.414000927734374,28.906470588235294
2025-10-20T14:39:53.208970,3.2442748091603053,-1.4732824427480915,-1.465648854961832,0.17238251953125,0.07900865478515624,9.368511096191405,28.24764705882353
2025-10-20T14:39:53.225750,3.0839694656488548,-1.5801526717557253,-0.7709923664122137,0.1580173095703125,0.033518823242187495,9.406818322753905,27.494705882352942
2025-10-20T14:39:53.242526,3.053435114503817,-1.5038167938931297,-0.0916030534351145,0.033518823242187495,0.0430956298828125,9.49300958251953,27.494705882352942
2025-10-20T14:39:53.259306,2.50381679389313,-1.3206106870229009,0.4122137404580153,0.0526724365234375,0.2059013427734375,9.373299499511718,28.15352941176471
2025-10-20T14:39:53.276079,3.8091603053435112,-1.083969465648855,0.8549618320610687,-0.00718260498046875,0.16759411621093748,9.41639512939453,27.494705882352942
2025-10-20T14:39:53.292871,1.1221374045801527,-0.7786259541984732,1.4045801526717556,-0.023942016601562498,0.24899697265624998,9.449913952636718,27.494705882352942
2025-10-20T14:39:53.309654,0.5343511450381679,-0.6870229007633588,0.007633587786259542,-0.047884033203124995,0.24181436767578124,9.313444458007812,28.15352941176471
2025-10-20T14:39:53.326429,-0.6183206106870229,-0.5801526717557252,2.213740458015267,-0.009576806640625,0.32561142578124996,9.418789331054686,27.494705882352942
2025-10-20T14:39:53.343204,-2.068702290076336,-0.46564885496183206,2.3206106870229006,-0.06703764648437499,0.38786066894531246,9.485826977539062,27.494705882352942
2025-10-20T14:39:53.359977,-3.618320610687023,-0.2900763358778626,2.450381679389313,-0.05027823486328125,0.4285620971679687,9.229647399902344,28.15352941176471
2025-10-20T14:39:53.376751,-5.343511450381679,-0.1297709923664122,2.6412213740458017,-0.08140285644531249,0.45010991210937495,9.464279162597656,28.953529411764706
2025-10-20T14:39:53.393523,-6.9541984732824424,0.10687022900763359,2.595419847328244,0.00718260498046875,0.5434837768554687,9.354145886230468,28.953529411764706
2025-10-20T14:39:53.410307,-9.091603053435115,0.24427480916030533,2.4580152671755724,0.11731588134765625,0.3232172241210937,9.435548742675781,28.20058823529412
2025-10-20T14:39:53.427089,-11.351145038167939,0.4122137404580153,2.3435114503816794,0.08140285644531249,0.4070142822265625,9.639055883789062,28.20058823529412
2025-10-20T14:39:53.443865,-13.50381679389313,0.9083969465648855,2.145038167938931,0.06464344482421874,0.5746083984375,9.481038574218749,28.953529411764706
2025-10-20T14:39:53.460639,-15.709923664122137,1.183206106870229,2.0229007633587788,0.08379705810546874,0.36152445068359373,9.380482104492186,28.294705882352943
2025-10-20T14:39:53.477411,-17.30534351145038,1.5114503816793894,1.717557251908397,0.0430956298828125,0.17956512451171874,9.425971936035156,28.294705882352943
2025-10-20T14:39:53.494193,-19.015267175572518,2.0076335877862594,1.366412213740458,0.016759411621093748,0.12449848632812499,9.459490759277344,28.294705882352943
2025-10-20T14:39:53.511176,-20.129770992366414,2.4656488549618323,1.0229007633587786,0.031124621582031248,0.016759411621093748,9.363722692871093,28.24764705882353
2025-10-20T14:39:53.527980,-21.129770992366414,2.8091603053435112,0.8015267175572519,0.0909796630859375,-0.02633621826171875,9.411606726074218,28.15352941176471
2025-10-20T14:39:53.544821,-21.85496183206107,3.3282442748091605,0.4961832061068702,0.07900865478515624,0.06703764648437499,9.287108239746093,28.294705882352943
2025-10-20T14:39:53.561671,-22.66412213740458,3.4656488549618323,0.24427480916030533,0.016759411621093748,0.05027823486328125,9.294290844726563,28.294705882352943
2025-10-20T14:39:53.578458,-23.328244274809162,3.5877862595419847,-0.45038167938931295,0.055066638183593745,0.076614453125,9.368511096191405,28.294705882352943
2025-10-20T14:39:53.595231,-23.603053435114504,3.564885496183206,-0.9694656488549618,0.047884033203124995,0.062249243164062495,9.04050546875,28.294705882352943
2025-10-20T14:39:53.612061,-23.778625954198475,3.4732824427480917,-1.4351145038167938,0.18914193115234373,0.09816226806640624,9.143456140136719,28.24764705882353
2025-10-20T14:39:53.628867,-24.33587786259542,3.183206106870229,-1.8091603053435115,0.296881005859375,0.12449848632812499,9.167398156738281,28.24764705882353
2025-10-20T14:39:53.645643,-24.61832061068702,3.2213740458015265,-2.5877862595419847,0.46686932373046874,0.1292868896484375,9.1554271484375,28.24764705882353
2025-10-20T14:39:53.662424,-24.61832061068702,3.030534351145038,-3.0076335877862594,0.5530605834960938,-0.1149216796875,9.093177905273437,28.341764705882355
2025-10-20T14:39:53.679198,-24.221374045801525,2.931297709923664,-3.2213740458015265,0.6368576416015624,-0.4525041137695312,9.088389501953124,28.341764705882355
2025-10-20T14:39:53.696037,-25.404580152671755,2.7938931297709924,-2.7938931297709924,0.7134720947265625,-0.430956298828125,9.052476477050782,28.24764705882353
2025-10-20T14:39:53.712823,-22.68702290076336,2.4656488549618323,-2.572519083969466,0.7685387329101562,-0.3687070556640625,9.200916979980468,28.15352941176471
2025-10-20T14:39:53.729598,-22.16793893129771,2.633587786259542,-2.351145038167939,0.5985504150390625,-0.40940848388671874,9.191340173339842,27.494705882352942
2025-10-20T14:39:53.746372,-21.27480916030534,2.6412213740458017,-2.236641221374046,0.5602431884765625,-0.44053310546874996,9.160215551757812,28.24764705882353
2025-10-20T14:39:53.763145,-20.328244274809162,2.4580152671755724,-1.6641221374045803,0.5722141967773438,-0.55545478515625,9.069235888671875,28.24764705882353
2025-10-20T14:39:53.779918,-19.267175572519083,2.312977099236641,-1.5954198473282444,0.469263525390625,-0.6368576416015624,9.05965908203125,28.341764705882355
2025-10-20T14:39:53.796725,-17.763358778625953,2.0229007633587788,-1.0458015267175573,0.42377369384765623,-0.718260498046875,9.212887988281249,28.24764705882353
2025-10-20T14:39:53.813541,-16.16030534351145,1.9312977099236641,-1.2748091603053435,0.30885201416015623,-0.7230489013671875,9.176974963378905,28.341764705882355
2025-10-20T14:39:53.830335,-14.50381679389313,1.8702290076335877,-1.1450381679389312,0.1771709228515625,-0.7852981445312499,9.150638745117186,28.24764705882353
2025-10-20T14:39:53.847109,-12.854961832061068,1.7404580152671756,-1.0305343511450382,0.076614453125,-0.9241618408203125,9.270348828125,28.341764705882355
2025-10-20T14:39:53.863934,-11.19083969465649,1.7099236641221374,-1.0610687022900764,-0.1149216796875,-0.9864110839843749,9.138667736816405,28.24764705882353
2025-10-20T14:39:53.880728,-9.106870229007633,1.450381679389313,-1.0763358778625953,-0.258573779296875,-1.0342951171875,9.131485131835937,28.24764705882353
2025-10-20T14:39:53.897513,-6.816793893129771,1.4961832061068703,-1.099236641221374,-0.14604630126953125,-1.0007762939453124,9.076418493652342,28.341764705882355
2025-10-20T14:39:53.914293,-4.893129770992366,0.9541984732824428,-1.0458015267175573,-0.27293898925781246,-1.0390835205078124,9.284714038085937,28.341764705882355
2025-10-20T14:39:53.931076,-3.0076335877862594,0.5190839694656488,-0.9618320610687023,-0.2346317626953125,-1.0414777221679687,9.234435803222656,28.341764705882355
2025-10-20T14:39:53.947848,-1.2900763358778626,0.5954198473282443,-1.0381679389312977,-0.24899697265624998,-1.0486603271484374,9.165003955078124,28.24764705882353
2025-10-20T14:39:53.964623,0.7251908396946565,0.40458015267175573,-1.1297709923664123,-0.3184288208007812,-0.9121908325195311,9.143456140136719,28.341764705882355
2025-10-20T14:39:53.981395,2.687022900763359,-0.11450381679389313,-1.2366412213740459,-0.28730419921875,-0.9576806640625,9.165003955078124,28.341764705882355
2025-10-20T14:39:53.998166,4.564885496183206,-0.13740458015267176,-1.4274809160305344,-0.22266075439453123,-1.0654197387695312,9.157821350097656,28.24764705882353
2025-10-20T14:39:54.014952,6.687022900763359,-0.366412213740458,-1.618320610687023,-0.3136404174804687,-1.0199299072265624,9.165003955078124,28.24764705882353
2025-10-20T14:39:54.031738,8.82442748091603,-0.5648854961832062,-1.916030534351145,-0.33039982910156246,-0.9744400756835937,9.267954626464844,28.24764705882353
2025-10-20T14:39:54.048518,10.67175572519084,-0.7938931297709924,-2.045801526717557,-0.2920926025390625,-0.9624690673828125,9.363722692871093,28.341764705882355
2025-10-20T14:39:54.065291,12.80916030534351,-0.8473282442748091,-2.282442748091603,-0.2657563842773437,-1.0079588989257813,9.30147344970703,28.24764705882353
2025-10-20T14:39:54.082063,14.687022900763358,-0.9236641221374046,-2.4885496183206106,-0.26336218261718747,-1.0366893188476562,9.289502441406249,28.953529411764706
2025-10-20T14:39:54.098850,16.900763358778626,-1.1068702290076335,-2.4122137404580153,-0.23702596435546874,-1.1133037719726562,9.248801013183593,28.294705882352943
2025-10-20T14:39:54.115633,19.27480916030534,-1.1221374045801527,-2.183206106870229,-0.3495534423828125,-1.0845733520507812,9.272743029785156,28.388823529411766
2025-10-20T14:39:54.132409,19.557251908396946,-1.2366412213740459,-2.1526717557251906,-0.4165910888671875,-1.1156979736328125,9.294290844726563,28.953529411764706
2025-10-20T14:39:54.149189,23.885496183206108,-1.2748091603053435,-2.4122137404580153,-0.4740519287109375,-1.0893617553710937,9.165003955078124,28.294705882352943
2025-10-20T14:39:54.165966,27.50381679389313,-1.7251908396946565,-2.7480916030534353,-0.24660277099609373,-0.967257470703125,9.162609753417968,28.294705882352943
2025-10-20T14:39:54.182738,29.396946564885496,-2.0916030534351147,-3.2900763358778624,0.15083470458984374,-0.7661445312499999,9.093177905273437,28.294705882352943
2025-10-20T14:39:54.199520,34.221374045801525,-2.2061068702290076,-3.5801526717557253,0.3758896606445312,-0.55545478515625,9.313444458007812,28.294705882352943
2025-10-20T14:39:54.216308,35.30534351145038,-2.33587786259542,-3.801526717557252,0.7326257080078125,-0.25139117431640623,9.382876306152344,28.388823529411766
2025-10-20T14:39:54.233089,35.06106870229008,-2.618320610687023,-1.9923664122137406,0.8164227661132812,-0.1388636962890625,9.591171850585937,28.388823529411766
2025-10-20T14:39:54.249868,33.51145038167939,-2.4580152671755724,-5.809160305343512,0.82360537109375,-0.23223756103515625,9.414000927734374,28.388823529411766
2025-10-20T14:39:54.273434,32.76335877862596,-2.732824427480916,-4.473282442748092,0.9935936889648437,-0.086191259765625,9.373299499511718,28.341764705882355
2025-10-20T14:39:54.290650,32.25954198473283,-2.6946564885496183,-4.770992366412214,1.1156979736328125,0.07422025146484375,9.536105212402344,28.388823529411766
2025-10-20T14:39:54.308731,29.69465648854962,-2.0,-4.885496183206107,1.189918225097656,0.36391865234375,9.572018237304688,28.341764705882355
2025-10-20T14:39:54.325600,24.72519083969466,-1.3969465648854962,-4.488549618320611,0.9193734375,0.5099649536132812,9.732429748535155,28.294705882352943
2025-10-20T14:39:54.342407,19.068702290076335,-0.5725190839694656,-3.931297709923664,0.82360537109375,0.5482721801757812,9.823409411621093,28.294705882352943
2025-10-20T14:39:54.359477,13.900763358778626,-0.32061068702290074,-3.6106870229007635,0.7158662963867187,0.36391865234375,9.6917283203125,28.294705882352943
2025-10-20T14:39:54.376291,8.67175572519084,0.15267175572519084,-3.351145038167939,0.4860229370117187,0.23702596435546874,9.562441430664062,28.294705882352943
2025-10-20T14:39:54.393146,4.190839694656488,0.2748091603053435,-3.145038167938931,0.32561142578124996,0.7757213378906249,9.730035546875,28.24764705882353
2025-10-20T14:39:54.409945,-0.5190839694656488,1.0458015267175573,-2.931297709923664,0.11731588134765625,0.6177040283203125,9.636661682128906,28.341764705882355
2025-10-20T14:39:54.426734,-5.129770992366412,1.1755725190839694,-2.7099236641221376,-0.10295067138671875,0.6200982299804687,9.923965881347655,28.341764705882355
2025-10-20T14:39:54.443512,-9.618320610687023,2.030534351145038,-2.4580152671755724,-0.22266075439453123,0.4836287353515625,9.662997900390625,28.341764705882355
2025-10-20T14:39:54.460330,-13.16793893129771,1.8702290076335877,-2.1603053435114505,-0.30406361083984373,0.3184288208007812,9.509768994140625,28.435882352941178
2025-10-20T14:39:54.477126,-15.076335877862595,3.900763358778626,-2.0610687022900764,-0.32561142578124996,0.3327940307617187,9.583989245605467,28.24764705882353
2025-10-20T14:39:54.493915,-17.068702290076335,2.068702290076336,-3.8931297709923665,-0.32561142578124996,0.3902548706054687,9.399635717773437,28.388823529411766
2025-10-20T14:39:54.510697,-18.931297709923665,1.9694656488549618,-0.022900763358778626,-0.3854664672851562,0.34715924072265625,9.428366137695312,28.24764705882353
2025-10-20T14:39:54.527472,-20.68702290076336,1.9083969465648856,-1.8854961832061068,-0.25139117431640623,0.2753331909179687,9.466673364257812,28.435882352941178
2025-10-20T14:39:54.544245,-21.885496183206108,1.9312977099236641,-1.7633587786259541,-0.22744915771484372,0.3112462158203125,9.387664709472656,28.341764705882355
2025-10-20T14:39:54.561018,-22.96946564885496,1.8091603053435115,-2.0076335877862594,-0.2561795776367187,0.34715924072265625,9.363722692871093,28.341764705882355
2025-10-20T14:39:54.577789,-23.045801526717558,1.4885496183206106,-1.8854961832061068,-0.229843359375,0.24899697265624998,9.260772021484375,28.341764705882355
2025-10-20T14:39:54.594561,-22.793893129770993,1.465648854961832,-2.213740458015267,-0.20829554443359374,0.296881005859375,9.165003955078124,28.341764705882355
2025-10-20T14:39:54.611348,-22.12213740458015,1.1755725190839694,-2.404580152671756,-0.1005564697265625,0.2705447875976562,9.296685046386719,28.341764705882355
2025-10-20T14:39:54.628131,-21.396946564885496,1.1221374045801527,-2.633587786259542,-0.055066638183593745,0.1149216796875,9.203311181640624,28.435882352941178
2025-10-20T14:39:54.644908,-20.114503816793892,0.8702290076335878,-2.7251908396946565,0.02633621826171875,-0.05985504150390625,9.368511096191405,28.435882352941178
2025-10-20T14:39:54.661682,-18.732824427480917,0.6870229007633588,-2.9618320610687023,0.06464344482421874,-0.011971008300781249,9.198522778320312,28.24764705882353
2025-10-20T14:39:54.678451,-17.114503816793892,0.4961832061068702,-2.984732824427481,0.12449848632812499,-0.09576806640624999,9.100360510253905,28.341764705882355
2025-10-20T14:39:54.695962,-15.076335877862595,0.5648854961832062,-3.2442748091603053,0.12449848632812499,-0.143652099609375,9.208099584960937,28.388823529411766
2025-10-20T14:39:54.714692,-13.16793893129771,0.015267175572519083,-3.2213740458015265,0.18435352783203124,-0.15083470458984374,9.30147344970703,28.294705882352943
2025-10-20T14:39:54.731526,-11.274809160305344,-1.9465648854961832,-2.9160305343511452,0.20350714111328125,-0.2561795776367187,9.325415466308593,28.341764705882355
2025-10-20T14:39:54.748310,-9.618320610687023,-0.10687022900763359,-2.900763358778626,0.22505495605468748,-0.277727392578125,9.236830004882812,28.341764705882355
2025-10-20T14:39:54.765087,-7.595419847328245,-0.10687022900763359,-2.66412213740458,0.28012159423828126,-0.40222587890625,9.342174877929686,28.435882352941178
2025-10-20T14:39:54.781863,-5.251908396946565,-0.06870229007633588,-2.4656488549618323,0.2609679809570312,-0.35673604736328124,9.10993731689453,28.341764705882355
2025-10-20T14:39:54.798636,-3.312977099236641,-1.9312977099236641,-2.435114503816794,0.21308394775390624,-0.5506663818359374,9.05965908203125,28.341764705882355
2025-10-20T14:39:54.815413,-1.2213740458015268,-0.06870229007633588,-2.3587786259541983,0.29448680419921874,-0.5123591552734374,9.217676391601563,28.341764705882355
2025-10-20T14:39:54.832189,0.6870229007633588,-0.022900763358778626,-2.0610687022900764,0.3591302490234375,-0.5817910034179687,9.275137231445312,28.294705882352943
2025-10-20T14:39:54.848965,2.3053435114503817,-0.04580152671755725,-2.0916030534351147,0.28730419921875,-0.6296750366210937,9.188945971679686,28.388823529411766
2025-10-20T14:39:54.865740,3.7709923664122136,-0.1984732824427481,-1.8778625954198473,0.3280056274414062,-0.469263525390625,9.090783703613281,28.388823529411766
2025-10-20T14:39:54.882515,5.267175572519084,-0.06870229007633588,-1.816793893129771,0.2609679809570312,-0.5530605834960938,9.205705383300781,28.48294117647059
2025-10-20T14:39:54.899286,6.366412213740458,-0.13740458015267176,-1.8549618320610688,0.20350714111328125,-0.430956298828125,9.239224206542968,28.294705882352943
2025-10-20T14:39:54.924446,6.885496183206107,0.11450381679389313,-1.9694656488549618,0.10773907470703124,-0.38786066894531246,9.212887988281249,28.388823529411766
2025-10-20T14:39:54.941567,6.679389312977099,0.0916030534351145,-2.015267175572519,0.047884033203124995,-0.3232172241210937,9.241618408203124,28.435882352941178
2025-10-20T14:39:54.961974,6.259541984732825,0.17557251908396945,-2.0610687022900764,0.033518823242187495,-0.2346317626953125,9.244012609863281,28.388823529411766
2025-10-20T14:39:54.978903,5.412213740458015,0.3816793893129771,-2.435114503816794,0.11252747802734374,-0.11731588134765625,9.2320416015625,28.341764705882355
2025-10-20T14:39:54.995709,4.32824427480916,0.4351145038167939,-2.6564885496183206,0.011971008300781249,-0.0383072265625,9.387664709472656,28.388823529411766
2025-10-20T14:39:55.012488,2.7099236641221376,0.5954198473282443,-2.954198473282443,0.06703764648437499,-0.05746083984375,9.3086560546875,28.388823529411766
2025-10-20T14:39:55.029263,0.8625954198473282,0.6335877862595419,-3.4427480916030535,0.016759411621093748,-0.03591302490234375,9.34696328125,28.388823529411766
2025-10-20T14:39:55.046053,-1.183206106870229,0.44274809160305345,-4.061068702290076,0.14604630126953125,-0.047884033203124995,9.351751684570312,28.388823529411766
2025-10-20T14:39:55.062844,-2.9770992366412212,0.6793893129770993,-4.465648854961832,0.09337386474609374,-0.055066638183593745,9.402029919433593,28.294705882352943
2025-10-20T14:39:55.079621,-4.763358778625954,0.8320610687022901,-4.549618320610687,0.031124621582031248,-0.143652099609375,9.437942944335937,28.294705882352943
2025-10-20T14:39:55.096395,-6.7251908396946565,0.6641221374045801,-5.00763358778626,0.07422025146484375,-0.2059013427734375,9.215282189941405,28.388823529411766
2025-10-20T14:39:55.113170,-7.99236641221374,1.1145038167938932,-5.465648854961832,0.1005564697265625,-0.28730419921875,9.41639512939453,28.294705882352943
2025-10-20T14:39:55.129944,-9.65648854961832,1.0687022900763359,-5.770992366412214,0.023942016601562498,-0.33518823242187495,9.3852705078125,28.388823529411766
2025-10-20T14:39:55.146717,-10.50381679389313,1.2366412213740459,-6.198473282442748,0.1197100830078125,-0.4860229370117187,9.313444458007812,28.435882352941178
2025-10-20T14:39:55.163491,-11.091603053435115,1.2061068702290076,-6.320610687022901,0.05746083984375,-0.5506663818359374,9.227253198242186,28.341764705882355
2025-10-20T14:39:55.180263,-11.49618320610687,1.3282442748091603,-6.702290076335878,0.12689268798828124,-0.6488286499023437,9.160215551757812,28.53
2025-10-20T14:39:55.197035,-11.282442748091603,1.2366412213740459,-6.740458015267175,-0.0718260498046875,-0.74699091796875,9.119514123535156,28.341764705882355
2025-10-20T14:39:55.213841,-10.969465648854962,1.0,-6.625954198473282,-0.1292868896484375,-0.8212111694335937,9.157821350097656,28.341764705882355
2025-10-20T14:39:55.230637,-10.82442748091603,0.8625954198473282,-6.3893129770992365,-0.08379705810546874,-0.7924807495117187,9.193734375,28.341764705882355
2025-10-20T14:39:55.247548,-10.435114503816793,0.45038167938931295,-6.625954198473282,-0.1388636962890625,-0.7613561279296874,9.181763366699219,28.388823529411766
2025-10-20T14:39:55.264402,-10.0,0.22137404580152673,-6.221374045801527,-0.13407529296874998,-0.63206923828125,9.14824454345703,28.435882352941178
2025-10-20T14:39:55.281198,-9.549618320610687,-0.1297709923664122,-6.129770992366412,-0.07422025146484375,-0.9121908325195311,9.241618408203124,28.435882352941178
2025-10-20T14:39:55.298001,-9.045801526717558,-0.366412213740458,-5.9465648854961835,-0.1149216796875,-0.7876923461914062,9.066841687011719,28.341764705882355
2025-10-20T14:39:55.315294,-8.770992366412214,-0.42748091603053434,-5.580152671755725,0.11013327636718749,-0.7685387329101562,9.229647399902344,28.341764705882355
2025-10-20T14:39:55.332147,-8.603053435114504,-0.6412213740458015,-5.213740458015267,0.016759411621093748,-0.833182177734375,9.277531433105468,28.388823529411766
2025-10-20T14:39:55.348958,-8.32824427480916,-0.7633587786259542,-4.778625954198473,0.0718260498046875,-0.7637503295898437,9.279925634765624,28.388823529411766
2025-10-20T14:39:55.365782,-8.320610687022901,-0.6946564885496184,-3.9083969465648853,0.17956512451171874,-0.7876923461914062,9.294290844726563,28.388823529411766
2025-10-20T14:39:55.382557,-8.259541984732824,-0.6717557251908397,-3.2977099236641223,0.24899697265624998,-0.737414111328125,9.440337145996093,28.388823529411766
2025-10-20T14:39:55.399333,-8.396946564885496,-0.648854961832061,-2.549618320610687,0.2657563842773437,-0.7134720947265625,9.481038574218749,28.294705882352943
2025-10-20T14:39:55.416128,-8.603053435114504,-0.3969465648854962,-1.5267175572519085,0.34237083740234375,-0.6679822631835937,9.315838659667968,28.388823529411766
2025-10-20T14:39:55.432923,-8.82442748091603,-0.3511450381679389,-0.7404580152671756,0.33518823242187495,-0.6200982299804687,9.399635717773437,28.388823529411766
2025-10-20T14:39:55.449703,-8.908396946564885,-0.022900763358778626,1.9465648854961832,0.2753331909179687,-0.5602431884765625,9.414000927734374,28.388823529411766
2025-10-20T14:39:55.467103,-8.687022900763358,-1.9465648854961832,0.9541984732824428,0.258573779296875,-0.469263525390625,9.34696328125,28.435882352941178
2025-10-20T14:39:55.484732,-8.587786259541986,-0.007633587786259542,1.5419847328244274,0.22266075439453123,-0.3184288208007812,9.476250170898437,28.48294117647059
2025-10-20T14:39:55.501942,-8.595419847328245,-0.06870229007633588,2.0916030534351147,0.19153613281249998,-0.38307226562499996,9.49300958251953,28.388823529411766
2025-10-20T14:39:55.519112,-8.221374045801527,-0.3435114503816794,2.633587786259542,0.2561795776367187,-0.39264907226562495,9.382876306152344,28.341764705882355
2025-10-20T14:39:55.536009,-7.534351145038168,-0.6259541984732825,2.8625954198473282,0.20829554443359374,-0.36152445068359373,9.392453112792968,28.388823529411766
2025-10-20T14:39:55.555766,-6.67175572519084,-0.7404580152671756,2.83206106870229,0.22026655273437498,-0.39743747558593745,9.244012609863281,28.388823529411766
2025-10-20T14:39:55.572667,-5.32824427480916,-0.8702290076335878,2.885496183206107,0.04548983154296875,-0.411802685546875,9.349357482910156,28.341764705882355
2025-10-20T14:39:55.589472,-3.83206106870229,-0.8931297709923665,2.6717557251908395,0.06703764648437499,-0.5195417602539062,9.318232861328125,28.341764705882355
2025-10-20T14:39:55.606256,-2.2748091603053435,-1.2671755725190839,2.4732824427480917,0.12689268798828124,-0.5722141967773438,9.279925634765624,28.435882352941178
2025-10-20T14:39:55.623270,-0.5801526717557252,-1.2061068702290076,2.4580152671755724,0.13407529296874998,-0.6847416748046875,9.210493786621093,28.435882352941178
2025-10-20T14:39:55.640128,1.0534351145038168,-0.9923664122137404,2.0,0.19632453613281248,-0.7565677246093749,9.188945971679686,28.388823529411766
2025-10-20T14:39:55.657100,2.9770992366412212,-1.0534351145038168,2.068702290076336,0.23702596435546874,-0.8044517578125,9.176974963378905,28.435882352941178
2025-10-20T14:39:55.674036,4.854961832061068,-1.1755725190839694,2.1297709923664123,0.011971008300781249,-0.842758984375,9.184157568359375,28.294705882352943
2025-10-20T14:39:55.690841,6.480916030534351,-1.2061068702290076,2.1603053435114505,0.2059013427734375,-0.8643067993164062,9.246406811523437,28.341764705882355
2025-10-20T14:39:55.707653,5.870229007633588,-1.2595419847328244,2.2061068702290076,0.040701428222656245,-0.86191259765625,9.215282189941405,28.435882352941178
2025-10-20T14:39:55.724916,8.83969465648855,-1.297709923664122,2.366412213740458,0.08379705810546874,-0.8379705810546875,9.265560424804686,28.341764705882355
2025-10-20T14:39:55.741718,9.748091603053435,-1.3969465648854962,2.549618320610687,-0.055066638183593745,-0.6751648681640625,9.114725720214842,28.435882352941178
2025-10-20T14:39:55.758494,10.068702290076336,-1.6106870229007633,2.549618320610687,0.09337386474609374,-0.55545478515625,9.222464794921875,28.435882352941178
2025-10-20T14:39:55.775276,10.389312977099237,-2.030534351145038,2.8091603053435112,0.181959326171875,-0.49320554199218747,9.342174877929686,28.435882352941178
2025-10-20T14:39:55.792053,9.938931297709924,-2.0610687022900764,3.0076335877862594,0.19393033447265623,-0.47644613037109373,9.361328491210937,28.341764705882355
2025-10-20T14:39:55.808843,9.267175572519085,-0.022900763358778626,3.0229007633587788,0.15083470458984374,-0.42377369384765623,9.272743029785156,28.341764705882355
2025-10-20T14:39:55.825630,8.267175572519085,-1.7099236641221374,3.198473282442748,0.086191259765625,-0.42377369384765623,9.179369165039063,28.435882352941178
2025-10-20T14:39:55.842407,7.251908396946565,-1.702290076335878,3.099236641221374,0.17238251953125,-0.25139117431640623,9.253589416503905,28.435882352941178
2025-10-20T14:39:55.859180,6.114503816793893,-1.816793893129771,3.1374045801526718,0.25139117431640623,-0.21308394775390624,9.380482104492186,28.341764705882355
2025-10-20T14:39:55.876026,4.7251908396946565,-1.381679389312977,3.2519083969465647,0.3687070556640625,-0.143652099609375,9.512163195800781,28.435882352941178
2025-10-20T14:39:55.892842,2.9618320610687023,-0.916030534351145,3.122137404580153,0.35194764404296874,-0.16280571289062498,9.251195214843749,28.341764705882355
2025-10-20T14:39:55.909633,0.8091603053435115,-0.5648854961832062,3.2442748091603053,0.38786066894531246,-0.1005564697265625,9.315838659667968,28.388823529411766
2025-10-20T14:39:55.926418,-1.1145038167938932,-0.549618320610687,3.2519083969465647,0.430956298828125,-0.062249243164062495,9.478644372558593,28.388823529411766
2025-10-20T14:39:55.943191,-3.045801526717557,-0.2748091603053435,3.045801526717557,0.3758896606445312,-0.11731588134765625,9.603142858886718,28.48294117647059
2025-10-20T14:39:55.959963,-4.694656488549619,-0.10687022900763359,3.1068702290076335,0.3806780639648437,-0.2154781494140625,9.552864624023437,28.435882352941178
2025-10-20T14:39:55.976741,-6.099236641221374,-0.1297709923664122,3.1068702290076335,0.28969840087890625,-0.13646949462890623,9.334992272949219,28.435882352941178
2025-10-20T14:39:55.993512,-7.748091603053435,0.2366412213740458,3.213740458015267,0.25139117431640623,-0.181959326171875,9.246406811523437,28.435882352941178
2025-10-20T14:39:56.010438,-8.916030534351146,0.20610687022900764,3.2519083969465647,0.19393033447265623,-0.17238251953125,9.366116894531249,28.388823529411766
2025-10-20T14:39:56.027225,-9.526717557251908,0.25190839694656486,3.1603053435114505,0.14125789794921875,-0.2154781494140625,9.404424121093749,28.388823529411766
2025-10-20T14:39:56.044008,-9.679389312977099,0.366412213740458,3.053435114503817,0.033518823242187495,-0.22744915771484372,9.358934289550781,28.388823529411766
2025-10-20T14:39:56.061016,-11.717557251908397,0.26717557251908397,2.885496183206107,-0.0143652099609375,-0.4429273071289062,9.394847314453125,28.388823529411766
2025-10-20T14:39:56.077819,-10.068702290076336,0.2824427480916031,2.900763358778626,0.15083470458984374,-0.19632453613281248,9.327809667968749,28.435882352941178
2025-10-20T14:39:56.094697,-9.931297709923664,0.2595419847328244,2.7557251908396947,0.05746083984375,-0.2705447875976562,9.258377819824219,28.435882352941178
2025-10-20T14:39:56.111708,-9.13740458015267,0.0916030534351145,2.4732824427480917,0.08140285644531249,-0.2561795776367187,9.495403784179686,28.435882352941178
2025-10-20T14:39:56.128494,-8.045801526717558,0.11450381679389313,2.1755725190839694,0.18914193115234373,-0.19153613281249998,9.394847314453125,28.435882352941178
2025-10-20T14:39:56.145270,-6.541984732824427,0.22137404580152673,1.7938931297709924,0.1197100830078125,-0.28730419921875,9.236830004882812,28.341764705882355
2025-10-20T14:39:56.162059,-5.290076335877862,1.9465648854961832,1.4885496183206106,0.2705447875976562,-0.27293898925781246,9.050082275390624,28.435882352941178
2025-10-20T14:39:56.178879,-4.091603053435114,-0.0916030534351145,0.9618320610687023,0.2346317626953125,-0.33518823242187495,9.275137231445312,28.388823529411766
2025-10-20T14:39:56.195722,-2.618320610687023,-0.15267175572519084,0.6335877862595419,0.36631285400390623,-0.30885201416015623,9.26316622314453,28.388823529411766
2025-10-20T14:39:56.212540,-0.816793893129771,-0.3435114503816794,0.20610687022900764,0.26815058593749996,-0.3447650390625,9.129090930175781,28.48294117647059
2025-10-20T14:39:56.229330,0.9694656488549618,-0.26717557251908397,-0.46564885496183206,0.36391865234375,-0.3136404174804687,9.181763366699219,28.388823529411766
2025-10-20T14:39:56.246124,2.6793893129770994,-0.2900763358778626,-0.8015267175572519,0.28969840087890625,-0.19871873779296872,9.258377819824219,28.388823529411766
2025-10-20T14:39:56.262915,4.137404580152672,-0.2595419847328244,-1.3053435114503817,0.33518823242187495,-0.19393033447265623,9.279925634765624,28.435882352941178
2025-10-20T14:39:56.279705,4.931297709923665,-0.22137404580152673,-1.4885496183206106,0.28730419921875,-0.18914193115234373,9.325415466308593,28.435882352941178
2025-10-20T14:39:56.296507,5.244274809160306,-0.06870229007633588,-1.5114503816793894,0.22505495605468748,-0.27293898925781246,9.354145886230468,28.53
2025-10-20T14:39:56.313287,5.679389312977099,-0.015267175572519083,-0.9923664122137404,0.229843359375,-0.3280056274414062,9.399635717773437,28.435882352941178
2025-10-20T14:39:56.330062,5.900763358778626,0.1297709923664122,-0.9083969465648855,0.1580173095703125,-0.181959326171875,9.392453112792968,28.435882352941178
2025-10-20T14:39:56.346850,5.969465648854962,0.061068702290076333,-0.6030534351145038,0.16998831787109375,-0.18914193115234373,9.504980590820312,28.435882352941178
2025-10-20T14:39:56.363621,5.564885496183206,0.2595419847328244,-0.26717557251908397,0.24660277099609373,-0.09816226806640624,9.516951599121093,28.53
2025-10-20T14:39:56.380395,4.2748091603053435,0.2366412213740458,0.3053435114503817,0.28730419921875,-0.08858546142578125,9.560047229003906,28.435882352941178
2025-10-20T14:39:56.397167,2.946564885496183,0.3435114503816794,0.5267175572519084,0.40222587890625,-0.1005564697265625,9.473855969238281,28.435882352941178
2025-10-20T14:39:56.413954,2.0763358778625953,0.29770992366412213,0.7938931297709924,0.43574470214843747,-0.1580173095703125,9.447519750976562,28.341764705882355
2025-10-20T14:39:56.430734,1.465648854961832,0.25190839694656486,0.8549618320610687,0.5147533569335937,-0.1580173095703125,9.435548742675781,28.435882352941178
2025-10-20T14:39:56.447535,0.9083969465648855,0.7099236641221374,0.9083969465648855,0.41419688720703124,-0.2609679809570312,9.373299499511718,28.341764705882355
2025-10-20T14:39:56.464325,0.022900763358778626,0.8702290076335878,1.1145038167938932,0.3806780639648437,-0.16041151123046873,9.423577734375,28.435882352941178
2025-10-20T14:39:56.481144,-0.7557251908396947,1.2900763358778626,1.0381679389312977,0.30885201416015623,-0.19871873779296872,9.469067565917967,28.435882352941178
2025-10-20T14:39:56.497934,-1.183206106870229,1.7328244274809161,1.213740458015267,0.17956512451171874,-0.15083470458984374,9.370905297851563,28.435882352941178
2025-10-20T14:39:56.514714,-1.3435114503816794,2.2748091603053435,1.3282442748091603,0.1388636962890625,-0.11731588134765625,9.279925634765624,28.435882352941178
2025-10-20T14:39:56.531492,-1.251908396946565,2.49618320610687,1.1297709923664123,0.11013327636718749,-0.08140285644531249,9.246406811523437,28.435882352941178
2025-10-20T14:39:56.548262,-1.4580152671755726,2.312977099236641,1.3435114503816794,0.11731588134765625,-0.1484405029296875,9.311050256347656,28.435882352941178
2025-10-20T14:39:56.565044,-1.83206106870229,2.2748091603053435,1.633587786259542,0.10773907470703124,-0.201112939453125,9.323021264648437,28.435882352941178
2025-10-20T14:39:56.581821,-1.534351145038168,2.1068702290076335,1.748091603053435,0.09337386474609374,-0.2154781494140625,9.220070593261719,28.341764705882355
2025-10-20T14:39:56.598592,-1.0534351145038168,1.916030534351145,0.04580152671755725,0.031124621582031248,-0.3399766357421875,9.119514123535156,28.435882352941178
2025-10-20T14:39:56.615377,-0.1450381679389313,1.297709923664122,2.0839694656488548,-0.00239420166015625,-0.3806780639648437,9.215282189941405,28.53
2025-10-20T14:39:56.632158,1.2748091603053435,1.0610687022900764,2.236641221374046,0.047884033203124995,-0.5315127685546874,9.267954626464844,28.435882352941178
2025-10-20T14:39:56.648932,2.5572519083969465,0.648854961832061,2.4885496183206106,0.06703764648437499,-0.6177040283203125,9.181763366699219,28.53
2025-10-20T14:39:56.665702,3.7404580152671754,0.7480916030534351,2.450381679389313,0.055066638183593745,-0.5817910034179687,9.141061938476563,28.341764705882355
2025-10-20T14:39:56.682472,4.770992366412214,0.6717557251908397,2.6412213740458017,0.08858546142578125,-0.5003881469726562,9.076418493652342,28.435882352941178
2025-10-20T14:39:56.699261,6.1603053435114505,0.7099236641221374,2.7404580152671754,0.0143652099609375,-0.5578489868164063,9.215282189941405,28.435882352941178
2025-10-20T14:39:56.716041,7.320610687022901,0.916030534351145,2.9923664122137406,0.055066638183593745,-0.5363011718749999,9.18655177001953,28.53
2025-10-20T14:39:56.732835,8.389312977099237,1.0076335877862594,2.954198473282443,0.05746083984375,-0.4477157104492187,9.275137231445312,28.435882352941178
2025-10-20T14:39:56.749619,8.900763358778626,0.9694656488549618,3.236641221374046,0.1005564697265625,-0.4333505004882812,9.323021264648437,28.341764705882355
2025-10-20T14:39:56.766394,9.32824427480916,0.8244274809160306,3.5572519083969465,0.10773907470703124,-0.3902548706054687,9.306261853027344,28.53
2025-10-20T14:39:56.783191,9.442748091603054,0.6259541984732825,3.7251908396946565,0.1149216796875,-0.34715924072265625,9.282319836425781,28.435882352941178
2025-10-20T14:39:56.799979,9.618320610687023,0.5725190839694656,4.061068702290076,0.1005564697265625,-0.20829554443359374,9.34696328125,28.435882352941178
2025-10-20T14:39:56.816795,9.51908396946565,0.1450381679389313,4.099236641221374,0.143652099609375,-0.06703764648437499,9.471461767578125,28.341764705882355
2025-10-20T14:39:56.833620,8.770992366412214,-0.030534351145038167,4.244274809160306,0.24181436767578124,0.02154781494140625,9.330203869628905,28.53
2025-10-20T14:39:56.850413,7.366412213740458,-0.5038167938931297,4.366412213740458,0.316034619140625,0.10773907470703124,9.512163195800781,28.435882352941178
2025-10-20T14:39:56.867236,6.0458015267175576,-0.7251908396946565,4.442748091603053,0.33758243408203126,0.1580173095703125,9.437942944335937,28.48294117647059
2025-10-20T14:39:56.884064,4.969465648854962,-0.48854961832061067,4.580152671755725,0.38307226562499996,0.0383072265625,9.404424121093749,28.48294117647059
2025-10-20T14:39:56.900934,3.6106870229007635,-0.648854961832061,4.458015267175573,0.3399766357421875,0.05027823486328125,9.490615380859374,28.388823529411766
2025-10-20T14:39:56.917786,2.2290076335877864,-0.25190839694656486,4.687022900763359,0.40940848388671874,0.02154781494140625,9.528922607421874,28.341764705882355
2025-10-20T14:39:56.934627,0.6946564885496184,-0.22137404580152673,5.0458015267175576,0.34715924072265625,0.03591302490234375,9.512163195800781,28.435882352941178
2025-10-20T14:39:56.951536,-1.2290076335877862,0.022900763358778626,5.473282442748092,0.18914193115234373,0.1005564697265625,9.586383447265625,28.388823529411766
2025-10-20T14:39:56.968405,-3.068702290076336,0.22137404580152673,5.870229007633588,0.37828386230468747,0.07422025146484375,9.516951599121093,28.53
2025-10-20T14:39:56.985256,-4.732824427480916,0.20610687022900764,6.3893129770992365,0.3758896606445312,0.15083470458984374,9.631873278808593,28.48294117647059
2025-10-20T14:39:57.002110,-5.67175572519084,0.21374045801526717,6.778625954198473,0.316034619140625,-0.08140285644531249,9.34696328125,28.388823529411766
2025-10-20T14:39:57.018958,-6.236641221374046,0.10687022900763359,6.99236641221374,0.49799394531249996,-0.13168109130859373,9.641450085449218,28.53
2025-10-20T14:39:57.035803,-6.366412213740458,0.3816793893129771,7.473282442748092,0.4908113403320312,-0.09576806640624999,9.227253198242186,28.435882352941178
2025-10-20T14:39:57.052860,-6.320610687022901,0.31297709923664124,7.862595419847328,0.3902548706054687,-0.14125789794921875,9.354145886230468,28.435882352941178
2025-10-20T14:39:57.071304,-6.0,0.26717557251908397,8.206106870229007,0.41898529052734373,-0.21308394775390624,9.4618849609375,28.53
2025-10-20T14:39:57.088200,-5.267175572519084,-0.03816793893129771,8.427480916030534,0.39983167724609375,-0.19632453613281248,9.327809667968749,28.53
2025-10-20T14:39:57.105061,-4.480916030534351,-0.19083969465648856,8.793893129770993,0.39743747558593745,-0.21068974609375,9.272743029785156,28.48294117647059
2025-10-20T14:39:57.121916,-3.3969465648854964,-0.32061068702290074,9.114503816793894,0.3447650390625,-0.24181436767578124,9.291896643066405,28.435882352941178
2025-10-20T14:39:57.138772,-2.3740458015267176,-0.5267175572519084,9.061068702290076,0.21308394775390624,-0.07900865478515624,9.100360510253905,28.435882352941178
2025-10-20T14:39:57.155622,-1.1984732824427482,-0.6946564885496184,9.374045801526718,0.23702596435546874,0.023942016601562498,9.205705383300781,28.577058823529413
2025-10-20T14:39:57.172484,-0.05343511450381679,-1.1068702290076335,9.549618320610687,0.17477672119140625,0.0,9.366116894531249,28.48294117647059
2025-10-20T14:39:57.189345,0.9312977099236641,-1.2748091603053435,9.572519083969466,0.143652099609375,-0.0047884033203125,9.287108239746093,28.388823529411766
2025-10-20T14:39:57.206200,1.8854961832061068,-1.366412213740458,9.687022900763358,0.07900865478515624,-0.05027823486328125,9.090783703613281,28.435882352941178
2025-10-20T14:39:57.223054,2.9770992366412212,-1.5954198473282444,9.396946564885496,0.11731588134765625,0.00239420166015625,9.074024291992187,28.48294117647059
2025-10-20T14:39:57.239903,4.5038167938931295,-0.05343511450381679,9.34351145038168,0.07422025146484375,-0.15083470458984374,8.992621435546875,28.388823529411766
2025-10-20T14:39:57.256766,6.343511450381679,-2.045801526717557,9.366412213740459,0.023942016601562498,-0.28012159423828126,9.069235888671875,28.435882352941178
2025-10-20T14:39:57.273627,8.068702290076336,-2.480916030534351,9.091603053435115,0.09337386474609374,0.0430956298828125,9.076418493652342,28.435882352941178
2025-10-20T14:39:57.290486,8.778625954198473,-2.5114503816793894,9.129770992366412,0.09576806640624999,0.047884033203124995,9.222464794921875,28.48294117647059
2025-10-20T14:39:57.307351,8.748091603053435,-2.66412213740458,8.946564885496183,-0.0718260498046875,0.33039982910156246,9.260772021484375,28.388823529411766
2025-10-20T14:39:57.324728,8.0,-3.1297709923664123,8.931297709923664,-0.05985504150390625,0.40222587890625,9.244012609863281,28.53
2025-10-20T14:39:57.341599,7.480916030534351,-3.2213740458015265,8.717557251908397,0.06703764648437499,0.44532150878906246,9.282319836425781,28.388823529411766
2025-10-20T14:39:57.358440,6.923664122137405,-3.1526717557251906,8.610687022900763,0.21787235107421873,0.4477157104492187,9.425971936035156,28.48294117647059
2025-10-20T14:39:57.375288,6.030534351145038,-3.122137404580153,8.15267175572519,0.1867477294921875,0.5099649536132812,9.361328491210937,28.435882352941178
2025-10-20T14:39:57.392138,4.404580152671755,-3.0229007633587788,8.106870229007633,0.20829554443359374,0.7206546997070312,9.330203869628905,28.53
2025-10-20T14:39:57.408984,1.748091603053435,-2.5801526717557253,7.893129770992366,0.373495458984375,0.6607996582031249,9.504980590820312,28.388823529411766
2025-10-20T14:39:57.425835,-1.2748091603053435,-2.3435114503816794,7.595419847328245,0.3591302490234375,0.86191259765625,9.564835632324218,28.48294117647059
2025-10-20T14:39:57.442686,-5.793893129770993,-1.8396946564885497,7.282442748091603,0.42377369384765623,0.7541735229492187,9.600748657226562,28.435882352941178
2025-10-20T14:39:57.459538,-6.419847328244275,-1.297709923664122,6.923664122137405,0.3902548706054687,0.6584054565429687,9.605537060546874,28.53
2025-10-20T14:39:57.476391,-8.595419847328245,-0.9770992366412213,6.450381679389313,0.40940848388671874,0.6679822631835937,9.428366137695312,28.48294117647059
2025-10-20T14:39:57.493231,-11.045801526717558,-0.6030534351145038,6.00763358778626,0.4165910888671875,0.622492431640625,9.605537060546874,28.48294117647059
2025-10-20T14:39:57.510087,-13.076335877862595,-0.06870229007633588,5.442748091603053,0.3806780639648437,0.5315127685546874,9.488221179199218,28.435882352941178
2025-10-20T14:39:57.526938,-14.572519083969466,0.15267175572519084,5.1603053435114505,0.34237083740234375,0.4070142822265625,9.425971936035156,28.435882352941178
2025-10-20T14:39:57.543789,-15.076335877862595,0.6335877862595419,4.847328244274809,0.23702596435546874,0.3399766357421875,9.323021264648437,28.435882352941178
2025-10-20T14:39:57.560638,-15.061068702290076,0.6717557251908397,4.236641221374046,0.16998831787109375,0.16759411621093748,9.294290844726563,28.577058823529413
2025-10-20T14:39:57.577483,-14.32824427480916,0.8320610687022901,3.83206106870229,0.258573779296875,0.1388636962890625,9.176974963378905,28.48294117647059
2025-10-20T14:39:57.594335,-13.15267175572519,0.8473282442748091,3.4580152671755724,0.28012159423828126,-0.0047884033203125,9.17458076171875,28.53
2025-10-20T14:39:57.611183,-11.488549618320612,0.5572519083969466,3.1374045801526718,0.0430956298828125,-0.023942016601562498,9.176974963378905,28.53
2025-10-20T14:39:57.628035,-9.83969465648855,0.4198473282442748,2.5572519083969465,-0.062249243164062495,-0.033518823242187495,9.172186560058593,28.388823529411766
2025-10-20T14:39:57.644879,-7.435114503816794,0.33587786259541985,2.427480916030534,-0.11013327636718749,0.062249243164062495,9.117119921875,28.388823529411766
2025-10-20T14:39:57.661714,-4.908396946564886,-0.04580152671755725,2.0839694656488548,-0.16519991455078123,0.06943184814453125,9.169792358398437,28.435882352941178
2025-10-20T14:39:57.678565,-2.732824427480916,-0.10687022900763359,1.786259541984733,-0.258573779296875,0.0430956298828125,9.0788126953125,28.435882352941178
2025-10-20T14:39:57.695414,-0.31297709923664124,-0.2595419847328244,1.5954198473282444,-0.28969840087890625,0.12210428466796874,9.081206896972656,28.577058823529413
2025-10-20T14:39:57.712254,0.022900763358778626,-0.4732824427480916,1.6412213740458015,-0.2561795776367187,0.0143652099609375,9.330203869628905,28.48294117647059
2025-10-20T14:39:57.729093,4.7251908396946565,-0.549618320610687,1.5954198473282444,-0.201112939453125,-0.016759411621093748,9.287108239746093,28.435882352941178
2025-10-20T14:39:57.745993,7.267175572519084,-0.6412213740458015,1.549618320610687,-0.14125789794921875,-0.17477672119140625,9.22485899658203,28.388823529411766
2025-10-20T14:39:57.762867,9.541984732824428,-0.5267175572519084,1.8778625954198473,-0.06943184814453125,-0.16041151123046873,9.275137231445312,28.48294117647059
2025-10-20T14:39:57.779731,11.511450381679388,-0.7099236641221374,2.1526717557251906,-0.11013327636718749,-0.15322890625,9.392453112792968,28.435882352941178
2025-10-20T14:39:57.796581,12.954198473282442,-0.8549618320610687,2.4198473282442747,0.04548983154296875,-0.17238251953125,9.548076220703125,28.435882352941178
2025-10-20T14:39:57.813525,14.358778625954198,-0.48091603053435117,3.0,0.16519991455078123,-0.143652099609375,9.34696328125,28.48294117647059
2025-10-20T14:39:57.830399,15.541984732824428,-0.4351145038167939,3.351145038167939,0.20829554443359374,0.1484405029296875,9.299079248046874,28.435882352941178
2025-10-20T14:39:57.847249,15.893129770992367,-0.13740458015267176,5.8396946564885495,0.29927520751953124,0.25139117431640623,9.409212524414063,28.48294117647059
2025-10-20T14:39:57.864096,16.00763358778626,0.13740458015267176,4.290076335877862,0.3232172241210937,0.34715924072265625,9.514557397460937,28.48294117647059
2025-10-20T14:39:57.880975,15.473282442748092,0.22137404580152673,4.572519083969466,0.34237083740234375,0.5291185668945312,9.528922607421874,28.53
2025-10-20T14:39:57.897848,15.007633587786259,0.8473282442748091,4.709923664122138,0.3495534423828125,0.4908113403320312,9.540893615722656,28.48294117647059
2025-10-20T14:39:57.914701,14.083969465648854,1.1984732824427482,4.687022900763359,0.4333505004882812,0.6153098266601562,9.495403784179686,28.388823529411766
2025-10-20T14:39:57.931550,13.572519083969466,1.5725190839694656,4.633587786259542,0.36631285400390623,0.9074024291992187,9.361328491210937,28.53
2025-10-20T14:39:57.948402,12.50381679389313,1.816793893129771,4.290076335877862,0.3064578125,0.9983820922851562,9.437942944335937,28.435882352941178
2025-10-20T14:39:57.965239,11.206106870229007,2.030534351145038,4.183206106870229,0.277727392578125,1.0103531005859374,9.5384994140625,28.48294117647059
2025-10-20T14:39:57.982092,9.641221374045802,2.1908396946564888,3.7938931297709924,0.39983167724609375,1.1228805786132812,9.557653027343749,28.577058823529413
2025-10-20T14:39:57.998941,8.709923664122137,2.66412213740458,3.3435114503816794,0.3399766357421875,0.9193734375,9.392453112792968,28.435882352941178
2025-10-20T14:39:58.015791,8.038167938931299,2.6946564885496183,0.6641221374045801,0.143652099609375,0.948103857421875,9.191340173339842,28.53
2025-10-20T14:39:58.032642,8.473282442748092,2.8091603053435112,-5.221374045801527,0.11731588134765625,1.5586252807617187,9.184157568359375,28.48294117647059
2025-10-20T14:39:58.049494,7.641221374045801,2.732824427480916,-6.122137404580153,0.201112939453125,0.8667010009765624,9.198522778320312,28.577058823529413
2025-10-20T14:39:58.066339,7.4961832061068705,2.6793893129770994,-6.305343511450381,0.36631285400390623,0.9217676391601562,9.605537060546874,28.48294117647059
2025-10-20T14:39:58.083203,6.847328244274809,3.2213740458015265,-6.198473282442748,0.2705447875976562,0.6751648681640625,9.284714038085937,28.53
2025-10-20T14:39:58.100056,6.984732824427481,2.4656488549618323,-6.458015267175573,0.2657563842773437,0.5722141967773438,9.26316622314453,28.48294117647059
2025-10-20T14:39:58.116896,6.076335877862595,2.7557251908396947,-6.885496183206107,0.0430956298828125,0.47165772705078124,9.090783703613281,28.577058823529413
2025-10-20T14:39:58.133901,7.00763358778626,2.618320610687023,-7.870229007633588,0.00718260498046875,0.5793968017578125,8.990227233886719,28.48294117647059
2025-10-20T14:39:58.150806,7.229007633587786,2.2519083969465647,-7.778625954198473,0.201112939453125,0.5674257934570313,9.150638745117186,28.435882352941178
2025-10-20T14:39:58.167681,7.374045801526718,2.1068702290076335,-7.877862595419847,0.28012159423828126,0.7733271362304687,9.368511096191405,28.48294117647059
2025-10-20T14:39:58.184547,6.9541984732824424,2.2977099236641223,-9.664122137404581,0.33039982910156246,0.8595183959960937,9.222464794921875,28.577058823529413
2025-10-20T14:39:58.201397,6.656488549618321,1.6106870229007633,-7.580152671755725,0.1771709228515625,0.7876923461914062,9.313444458007812,28.435882352941178
2025-10-20T14:39:58.218252,7.809160305343512,1.4732824427480915,-7.511450381679389,0.36631285400390623,0.7733271362304687,9.279925634765624,28.48294117647059
2025-10-20T14:39:58.235104,5.358778625954199,1.2671755725190839,-7.595419847328245,0.4908113403320312,0.8882488159179687,9.241618408203124,28.48294117647059
2025-10-20T14:39:58.251965,5.244274809160306,1.1984732824427482,-7.32824427480916,0.5793968017578125,0.948103857421875,9.3086560546875,28.435882352941178
2025-10-20T14:39:58.268817,5.00763358778626,0.9770992366412213,-7.5038167938931295,0.5913678100585937,1.0390835205078124,9.253589416503905,28.48294117647059
2025-10-20T14:39:58.285694,4.694656488549619,1.083969465648855,-7.450381679389313,0.5985504150390625,1.1085153686523437,9.251195214843749,28.48294117647059
2025-10-20T14:39:58.302549,4.0458015267175576,1.282442748091603,-7.305343511450381,0.5386953735351562,1.180341418457031,9.3086560546875,28.435882352941178
2025-10-20T14:39:58.319399,3.114503816793893,1.183206106870229,-7.183206106870229,0.5291185668945312,1.0821791503906248,9.265560424804686,28.388823529411766
2025-10-20T14:39:58.336247,2.0839694656488548,1.282442748091603,-7.206106870229007,0.3112462158203125,1.1420341918945311,9.260772021484375,28.48294117647059
2025-10-20T14:39:58.353090,1.366412213740458,0.9389312977099237,-7.00763358778626,0.35673604736328124,1.0031704956054688,9.26316622314453,28.53
2025-10-20T14:39:58.369936,1.1450381679389312,0.9083969465648855,-6.854961832061068,0.17238251953125,1.1180921752929687,9.227253198242186,28.53
2025-10-20T14:39:58.386796,0.6793893129770993,0.6030534351145038,-6.6106870229007635,0.18435352783203124,1.2401964599609374,9.095572106933593,28.48294117647059
2025-10-20T14:39:58.403647,-0.13740458015267176,0.07633587786259542,-6.687022900763359,0.22026655273437498,1.2976572998046874,9.066841687011719,28.388823529411766
2025-10-20T14:39:58.420498,-1.015267175572519,-0.4198473282442748,-6.488549618320611,0.3016694091796875,1.2018892333984375,9.303867651367186,28.53
2025-10-20T14:39:58.437339,-1.8244274809160306,-0.9847328244274809,-6.1603053435114505,0.21068974609375,1.3431471313476562,9.332598071289063,28.48294117647059
2025-10-20T14:39:58.454189,-2.1908396946564888,-1.4045801526717556,-6.0,0.09576806640624999,1.3239935180664062,9.2320416015625,28.48294117647059
2025-10-20T14:39:58.471038,-0.03816793893129771,-2.0229007633587788,-6.038167938931298,0.28730419921875,1.235408056640625,9.284714038085937,28.48294117647059
2025-10-20T14:39:58.487886,-1.6106870229007633,-2.3740458015267176,-6.0458015267175576,0.6200982299804687,1.3742717529296875,9.153032946777342,28.53
2025-10-20T14:39:58.504729,-1.7404580152671756,-2.450381679389313,-6.038167938931298,0.49320554199218747,1.1133037719726562,9.150638745117186,28.48294117647059
2025-10-20T14:39:58.521572,-1.8396946564885497,-2.763358778625954,-5.809160305343512,0.507570751953125,1.1252747802734375,9.612719665527344,28.577058823529413
2025-10-20T14:39:58.538415,-1.1450381679389312,-2.7938931297709924,-5.824427480916031,0.32082302246093747,1.2378022583007813,9.181763366699219,28.341764705882355
2025-10-20T14:39:58.555266,-0.183206106870229,-2.7251908396946565,-5.755725190839694,0.1005564697265625,1.1947066284179686,9.220070593261719,28.53
2025-10-20T14:39:58.572113,0.6946564885496184,-3.1068702290076335,-5.938931297709924,0.18435352783203124,0.9816226806640624,9.258377819824219,28.48294117647059
2025-10-20T14:39:58.589014,0.46564885496183206,-1.9618320610687023,-5.786259541984733,0.40222587890625,0.948103857421875,9.469067565917967,28.53
2025-10-20T14:39:58.605873,0.030534351145038167,-2.801526717557252,-5.625954198473282,0.4908113403320312,1.197100830078125,9.476250170898437,28.435882352941178
2025-10-20T14:39:58.622727,-1.549618320610687,-1.9083969465648856,-5.564885496183206,0.3184288208007812,1.3383587280273437,9.445125549316407,28.48294117647059
2025-10-20T14:39:58.639575,-3.2595419847328246,-3.8931297709923665,-5.709923664122138,0.26815058593749996,1.3934253662109375,9.600748657226562,28.435882352941178
2025-10-20T14:39:58.656430,-5.152671755725191,-1.618320610687023,-6.030534351145038,0.11252747802734374,1.448492004394531,9.447519750976562,28.53
2025-10-20T14:39:58.673279,-7.00763358778626,-1.465648854961832,-6.549618320610687,-0.076614453125,1.3000515014648437,9.392453112792968,28.577058823529413
2025-10-20T14:39:58.690210,-8.977099236641221,-1.1145038167938932,-7.022900763358779,-0.4381389038085937,1.1827356201171875,9.3852705078125,28.53
2025-10-20T14:39:58.707087,-11.13740458015267,-1.2900763358778626,-7.778625954198473,-0.7709329345703124,1.0773907470703123,9.583989245605467,28.48294117647059
2025-10-20T14:39:58.723942,-13.305343511450381,-1.0229007633587786,-8.0,-0.7062894897460937,0.9744400756835937,9.672574707031249,28.48294117647059
2025-10-20T14:39:58.740788,-14.908396946564885,-1.083969465648855,-8.282442748091603,-0.40462008056640625,0.833182177734375,9.469067565917967,28.53
2025-10-20T14:39:58.758625,-16.137404580152673,-1.083969465648855,-8.526717557251908,-0.0143652099609375,0.6344634399414062,9.344569079589844,28.435882352941178
2025-10-20T14:39:58.775521,-15.954198473282442,-0.6946564885496184,-8.442748091603054,0.20350714111328125,0.6655880615234374,9.265560424804686,28.577058823529413
2025-10-20T14:39:58.792397,-15.870229007633588,-0.5954198473282443,-8.473282442748092,0.22505495605468748,0.51714755859375,9.253589416503905,28.53
2025-10-20T14:39:58.809274,-15.381679389312977,-0.2366412213740458,-8.374045801526718,0.239420166015625,0.5243301635742187,9.282319836425781,28.48294117647059
2025-10-20T14:39:58.826152,-15.022900763358779,0.07633587786259542,-8.16793893129771,0.17956512451171874,0.44532150878906246,9.3852705078125,28.53
2025-10-20T14:39:58.843010,-13.900763358778626,0.3816793893129771,-7.770992366412214,0.2537853759765625,0.40462008056640625,9.229647399902344,28.435882352941178
2025-10-20T14:39:58.859863,-12.778625954198473,0.5190839694656488,-7.519083969465649,0.3591302490234375,0.39743747558593745,9.337386474609374,28.388823529411766
2025-10-20T14:39:58.876709,-11.045801526717558,0.8625954198473282,-7.259541984732825,0.3495534423828125,0.46686932373046874,9.287108239746093,28.48294117647059
2025-10-20T14:39:58.893576,-10.274809160305344,1.16793893129771,-6.931297709923665,0.258573779296875,0.6679822631835937,9.344569079589844,28.53
2025-10-20T14:39:58.910429,-10.206106870229007,1.1068702290076335,-6.549618320610687,0.076614453125,0.9504980590820312,9.334992272949219,28.48294117647059
2025-10-20T14:39:58.927284,-11.717557251908397,1.3740458015267176,-6.114503816793893,0.055066638183593745,1.0773907470703123,9.524134204101562,28.48294117647059
2025-10-20T14:39:58.944134,-13.648854961832061,1.450381679389313,-5.633587786259542,0.04548983154296875,1.0941501586914062,9.651026892089844,28.53
2025-10-20T14:39:58.960977,-15.274809160305344,1.183206106870229,-5.442748091603053,0.11731588134765625,0.93852705078125,9.651026892089844,28.435882352941178
2025-10-20T14:39:58.977819,-16.923664122137403,1.0916030534351144,-5.213740458015267,0.023942016601562498,0.8834604125976562,9.255983618164063,28.577058823529413
2025-10-20T14:39:58.994682,-18.16793893129771,0.8854961832061069,-5.129770992366412,0.19632453613281248,1.0223241088867188,9.622296472167967,28.388823529411766
2025-10-20T14:39:59.011891,-20.00763358778626,1.2366412213740459,-5.022900763358779,0.12449848632812499,0.5961562133789062,9.519345800781249,28.48294117647059
2025-10-20T14:39:59.028783,-21.84732824427481,1.6641221374045803,-4.969465648854962,0.055066638183593745,0.36391865234375,9.361328491210937,28.48294117647059
2025-10-20T14:39:59.045638,-22.19083969465649,1.4198473282442747,-5.229007633587786,0.0718260498046875,0.36631285400390623,9.452308154296874,28.435882352941178
2025-10-20T14:39:59.062491,-21.15267175572519,1.2442748091603053,-5.770992366412214,0.2346317626953125,0.08379705810546874,9.34696328125,28.388823529411766
2025-10-20T14:39:59.079346,-19.30534351145038,1.1755725190839694,-6.1679389312977095,0.16759411621093748,-0.062249243164062495,9.287108239746093,28.53
2025-10-20T14:39:59.096219,-17.450381679389313,1.8091603053435115,-6.3816793893129775,0.2609679809570312,-0.28012159423828126,8.990227233886719,28.435882352941178
2025-10-20T14:39:59.113074,-17.53435114503817,1.7557251908396947,-6.656488549618321,0.13407529296874998,-0.2657563842773437,9.160215551757812,28.48294117647059
2025-10-20T14:39:59.129926,-13.412213740458014,1.702290076335878,-7.00763358778626,0.04548983154296875,-0.2346317626953125,9.153032946777342,28.48294117647059
2025-10-20T14:39:59.146778,-10.80916030534351,1.8549618320610688,-6.99236641221374,0.02633621826171875,-0.18914193115234373,9.131485131835937,28.53
2025-10-20T14:39:59.163630,-7.534351145038168,1.4274809160305344,-7.175572519083969,0.011971008300781249,-0.24899697265624998,9.119514123535156,28.577058823529413
2025-10-20T14:39:59.180485,-4.282442748091603,1.015267175572519,-7.076335877862595,-0.03591302490234375,-0.16041151123046873,9.188945971679686,28.48294117647059
2025-10-20T14:39:59.197338,-3.8473282442748094,0.4198473282442748,-6.908396946564886,0.0,-0.08140285644531249,9.133879333496093,28.53
2025-10-20T14:39:59.214189,-0.26717557251908397,-0.366412213740458,-6.679389312977099,0.02154781494140625,-0.033518823242187495,9.160215551757812,28.435882352941178
2025-10-20T14:39:59.231041,0.7938931297709924,-0.7404580152671756,-6.1603053435114505,0.0383072265625,-0.05746083984375,9.296685046386719,28.577058823529413
2025-10-20T14:39:59.247899,2.0229007633587788,-1.1450381679389312,-5.893129770992366,0.09576806640624999,0.0047884033203125,9.215282189941405,28.48294117647059
2025-10-20T14:39:59.264765,3.618320610687023,-1.5801526717557253,-5.6106870229007635,0.22026655273437498,0.00239420166015625,9.162609753417968,28.53
2025-10-20T14:39:59.281625,4.755725190839694,-1.4809160305343512,-5.190839694656488,0.181959326171875,-0.02633621826171875,9.133879333496093,28.48294117647059
2025-10-20T14:39:59.298485,5.0534351145038165,-1.4274809160305344,-4.793893129770993,0.28012159423828126,0.05027823486328125,9.215282189941405,28.577058823529413
2025-10-20T14:39:59.315351,4.3816793893129775,-1.3893129770992367,-4.374045801526718,0.40222587890625,0.17956512451171874,9.399635717773437,28.624117647058824
2025-10-20T14:39:59.332209,2.900763358778626,-0.9618320610687023,-3.648854961832061,0.5123591552734374,0.22744915771484372,9.423577734375,28.577058823529413
2025-10-20T14:39:59.349066,1.618320610687023,-0.3816793893129771,-3.33587786259542,0.430956298828125,0.239420166015625,9.483432775878907,28.671176470588236
2025-10-20T14:39:59.365913,1.1297709923664123,0.015267175572519083,-3.366412213740458,0.40940848388671874,0.28012159423828126,9.334992272949219,28.435882352941178
2025-10-20T14:39:59.382764,0.3816793893129771,0.3511450381679389,-3.2595419847328246,0.42377369384765623,0.2753331909179687,9.279925634765624,28.53
2025-10-20T14:39:59.399622,-0.8549618320610687,0.6870229007633588,-3.0763358778625953,0.4836287353515625,0.3232172241210937,9.366116894531249,28.48294117647059
2025-10-20T14:39:59.416474,-2.8625954198473282,1.1297709923664123,-2.816793893129771,0.40940848388671874,0.4381389038085937,9.440337145996093,28.48294117647059
2025-10-20T14:39:59.433381,-5.0,1.2061068702290076,-2.633587786259542,0.32082302246093747,0.4644751220703125,9.473855969238281,28.53
2025-10-20T14:39:59.450292,-7.450381679389313,1.1374045801526718,-2.5877862595419847,0.2561795776367187,0.5458779785156249,9.344569079589844,28.48294117647059
2025-10-20T14:39:59.467162,-8.34351145038168,0.8778625954198473,-2.6564885496183206,0.11731588134765625,0.5027823486328125,9.440337145996093,28.53
2025-10-20T14:39:59.484040,-9.290076335877863,0.6793893129770993,-3.1374045801526718,0.105344873046875,0.41898529052734373,9.229647399902344,28.671176470588236
2025-10-20T14:39:59.500920,-10.022900763358779,0.366412213740458,-3.2748091603053435,0.009576806640625,0.36391865234375,9.222464794921875,28.577058823529413
2025-10-20T14:39:59.517778,-10.83206106870229,0.16030534351145037,-3.5419847328244276,0.1867477294921875,0.42377369384765623,9.200916979980468,28.435882352941178
2025-10-20T14:39:59.534635,-11.404580152671755,0.061068702290076333,-5.824427480916031,0.22744915771484372,0.28490999755859375,9.203311181640624,28.48294117647059
2025-10-20T14:39:59.551488,-10.709923664122137,0.03816793893129771,-4.572519083969466,0.16280571289062498,0.023942016601562498,9.198522778320312,28.48294117647059
2025-10-20T14:39:59.568413,-9.335877862595419,0.0916030534351145,-4.862595419847328,0.07422025146484375,0.12689268798828124,9.119514123535156,28.53
2025-10-20T14:39:59.585270,-7.66412213740458,0.09923664122137404,-5.480916030534351,0.0383072265625,0.09576806640624999,9.066841687011719,28.48294117647059
2025-10-20T14:39:59.602135,-5.694656488549619,0.1297709923664122,-5.931297709923665,-0.00239420166015625,0.0383072265625,8.894459167480468,28.577058823529413
2025-10-20T14:39:59.618989,-4.114503816793893,0.17557251908396945,-6.3893129770992365,0.0718260498046875,0.09816226806640624,9.14824454345703,28.435882352941178
2025-10-20T14:39:59.635912,-2.068702290076336,0.25190839694656486,-6.748091603053435,0.0143652099609375,0.023942016601562498,9.076418493652342,28.577058823529413
2025-10-20T14:39:59.652793,0.6564885496183206,0.007633587786259542,-7.206106870229007,-0.06703764648437499,0.04548983154296875,9.085995300292968,28.577058823529413
2025-10-20T14:39:59.669648,3.6946564885496183,-0.3053435114503817,-7.908396946564886,-0.143652099609375,-0.031124621582031248,9.121908325195312,28.53
2025-10-20T14:39:59.686508,6.526717557251908,-0.5190839694656488,-8.374045801526718,-0.0143652099609375,-0.040701428222656245,9.083601098632812,28.48294117647059
2025-10-20T14:39:59.705082,9.404580152671755,-1.0534351145038168,-8.717557251908397,0.04548983154296875,-0.12210428466796874,9.085995300292968,28.48294117647059
2025-10-20T14:39:59.723464,12.099236641221374,-1.7709923664122138,-9.053435114503817,-0.01915361328125,-0.12449848632812499,9.095572106933593,28.435882352941178
2025-10-20T14:39:59.740351,14.877862595419847,-2.366412213740458,-9.259541984732824,-0.086191259765625,-0.13407529296874998,9.162609753417968,28.577058823529413
2025-10-20T14:39:59.757193,15.641221374045802,-2.801526717557252,-9.305343511450381,-0.15083470458984374,-0.16280571289062498,9.141061938476563,28.53
2025-10-20T14:39:59.774040,20.17557251908397,-3.053435114503817,-9.396946564885496,0.031124621582031248,-0.076614453125,9.244012609863281,28.435882352941178
2025-10-20T14:39:59.790889,21.603053435114504,-2.7251908396946565,-9.13740458015267,0.11013327636718749,0.14125789794921875,9.382876306152344,28.53
2025-10-20T14:39:59.807729,21.633587786259543,-2.801526717557252,-8.610687022900763,0.22026655273437498,0.239420166015625,9.3852705078125,28.48294117647059
2025-10-20T14:39:59.824558,20.52671755725191,-2.450381679389313,-8.030534351145038,0.3232172241210937,0.4213794921875,9.459490759277344,28.577058823529413
2025-10-20T14:39:59.841375,18.931297709923665,-1.9923664122137406,-7.4961832061068705,0.373495458984375,0.4165910888671875,9.435548742675781,28.577058823529413
2025-10-20T14:39:59.858194,17.702290076335878,-1.3740458015267176,-7.114503816793893,0.4333505004882812,0.5482721801757812,9.60793126220703,28.48294117647059
2025-10-20T14:39:59.875018,15.969465648854962,-0.816793893129771,-7.175572519083969,0.3064578125,0.7924807495117187,9.567229833984374,28.53
2025-10-20T14:39:59.891850,13.770992366412214,-0.2900763358778626,-7.0,0.5674257934570313,0.9145850341796874,9.68454571533203,28.53
2025-10-20T14:39:59.908727,10.786259541984732,0.4122137404580153,-7.251908396946565,0.33039982910156246,0.9313444458007812,9.53131680908203,28.577058823529413
2025-10-20T14:39:59.925573,7.557251908396947,0.5877862595419847,-7.351145038167939,0.33758243408203126,0.8786720092773437,9.60793126220703,28.577058823529413
2025-10-20T14:39:59.942424,5.137404580152672,1.16793893129771,-7.580152671755725,0.36152445068359373,0.7948749511718749,9.557653027343749,28.624117647058824
2025-10-20T14:39:59.959272,3.198473282442748,1.3358778625954197,-7.717557251908397,0.3064578125,0.6751648681640625,9.622296472167967,28.53
2025-10-20T14:39:59.976120,1.534351145038168,1.5190839694656488,-7.977099236641221,0.2609679809570312,0.7493851196289062,9.7683427734375,28.48294117647059
2025-10-20T14:39:59.992965,0.09923664122137404,1.6564885496183206,-8.122137404580153,0.1771709228515625,0.37828386230468747,9.380482104492186,28.48294117647059
2025-10-20T14:40:00.009821,-1.633587786259542,1.916030534351145,-8.244274809160306,-0.29927520751953124,0.239420166015625,9.595960253906249,28.53
2025-10-20T14:40:00.026675,-3.1908396946564888,1.8015267175572518,-8.351145038167939,0.14604630126953125,0.430956298828125,9.631873278808593,28.53
2025-10-20T14:40:00.043525,-3.854961832061069,1.5267175572519085,-8.114503816793894,0.23702596435546874,0.411802685546875,9.459490759277344,28.48294117647059
2025-10-20T14:40:00.060374,-4.236641221374046,1.786259541984733,-8.267175572519085,0.11731588134765625,0.316034619140625,9.435548742675781,28.577058823529413
2025-10-20T14:40:00.077215,-3.9389312977099236,1.3435114503816794,-8.251908396946565,0.2346317626953125,0.28969840087890625,9.179369165039063,28.53
2025-10-20T14:40:00.094063,-3.4885496183206106,1.4274809160305344,-8.335877862595419,0.1580173095703125,0.3112462158203125,9.402029919433593,28.53
2025-10-20T14:40:00.110916,-3.8244274809160306,1.5038167938931297,-8.122137404580153,0.2442085693359375,0.40940848388671874,9.433154541015625,28.48294117647059
2025-10-20T14:40:00.127765,-3.9236641221374047,1.3969465648854962,-7.969465648854962,0.2154781494140625,0.411802685546875,9.337386474609374,28.48294117647059
2025-10-20T14:40:00.144606,-4.0458015267175576,0.916030534351145,-7.740458015267175,0.18435352783203124,0.4333505004882812,9.291896643066405,28.577058823529413
2025-10-20T14:40:00.161447,-4.183206106870229,0.7709923664122137,-7.404580152671755,0.016759411621093748,0.6009446166992187,9.337386474609374,28.435882352941178
2025-10-20T14:40:00.178294,-5.175572519083969,0.45038167938931295,-6.99236641221374,0.30406361083984373,0.5793968017578125,9.464279162597656,28.48294117647059
2025-10-20T14:40:00.195144,-6.236641221374046,0.08396946564885496,-6.557251908396947,0.23702596435546874,0.4860229370117187,9.548076220703125,28.577058823529413
2025-10-20T14:40:00.211997,-7.106870229007634,0.08396946564885496,-5.977099236641221,0.22266075439453123,0.46208092041015625,9.466673364257812,28.53
2025-10-20T14:40:00.228845,-8.076335877862595,-0.24427480916030533,-5.3893129770992365,0.28012159423828126,0.6440402465820312,9.651026892089844,28.53
2025-10-20T14:40:00.245692,-8.885496183206106,-0.3816793893129771,-4.969465648854962,0.239420166015625,0.6679822631835937,9.586383447265625,28.577058823529413
2025-10-20T14:40:00.262540,-10.091603053435115,-0.4961832061068702,-4.526717557251908,0.36631285400390623,0.9002198242187499,9.430760339355468,28.577058823529413
2025-10-20T14:40:00.279456,-11.236641221374045,-0.6183206106870229,-3.900763358778626,0.38307226562499996,0.7852981445312499,9.572018237304688,28.53
2025-10-20T14:40:00.296366,-12.13740458015267,-0.15267175572519084,-3.404580152671756,0.39743747558593745,0.6919242797851562,9.629479077148437,28.577058823529413
2025-10-20T14:40:00.313233,-12.885496183206106,-0.2748091603053435,-3.16793893129771,0.3591302490234375,0.718260498046875,9.473855969238281,28.435882352941178
2025-10-20T14:40:00.330077,-13.16030534351145,-0.25190839694656486,-2.618320610687023,0.3950432739257812,0.5961562133789062,9.418789331054686,28.53
2025-10-20T14:40:00.346946,-13.603053435114504,-0.3053435114503817,-2.183206106870229,0.3280056274414062,0.7038952880859375,9.478644372558593,28.577058823529413
2025-10-20T14:40:00.363818,-13.549618320610687,-0.2366412213740458,-1.618320610687023,0.40940848388671874,0.679953271484375,9.457096557617186,28.577058823529413
2025-10-20T14:40:00.380672,-13.198473282442748,-0.03816793893129771,-1.618320610687023,0.36152445068359373,0.6751648681640625,9.45470235595703,28.53
2025-10-20T14:40:00.397524,-12.526717557251908,-0.16793893129770993,-1.2290076335877862,0.36152445068359373,0.7350199096679687,9.425971936035156,28.48294117647059
2025-10-20T14:40:00.414384,-11.282442748091603,-0.4961832061068702,-1.1984732824427482,0.2705447875976562,0.8882488159179687,9.349357482910156,28.577058823529413
2025-10-20T14:40:00.431236,-10.045801526717558,-0.8015267175572519,-1.0381679389312977,0.29448680419921874,0.8810662109374999,9.380482104492186,28.53
2025-10-20T14:40:00.448169,-8.358778625954198,-0.8549618320610687,-0.9618320610687023,0.29448680419921874,0.7350199096679687,9.265560424804686,28.577058823529413
2025-10-20T14:40:00.465030,-6.122137404580153,-1.1450381679389312,-1.3511450381679388,0.258573779296875,0.7422025146484375,9.255983618164063,28.577058823529413
2025-10-20T14:40:00.481886,-3.4732824427480917,-1.3053435114503817,-1.366412213740458,0.20829554443359374,0.6153098266601562,9.198522778320312,28.624117647058824
2025-10-20T14:40:00.498731,-0.9312977099236641,-1.3358778625954197,-1.8778625954198473,0.17956512451171874,0.5363011718749999,9.153032946777342,28.48294117647059
2025-10-20T14:40:00.515610,2.1068702290076335,-1.5267175572519085,-2.0916030534351147,0.11013327636718749,0.5123591552734374,8.935160595703124,28.577058823529413
2025-10-20T14:40:00.532504,5.442748091603053,-1.6259541984732824,-2.3435114503816794,0.11013327636718749,0.37828386230468747,9.042899670410156,28.624117647058824
2025-10-20T14:40:00.549356,8.259541984732824,-1.748091603053435,-2.6793893129770994,0.011971008300781249,0.4070142822265625,9.107543115234375,28.577058823529413
2025-10-20T14:40:00.566198,11.083969465648854,-1.4427480916030535,-2.8396946564885495,0.011971008300781249,0.40940848388671874,9.138667736816405,28.577058823529413
2025-10-20T14:40:00.583046,13.259541984732824,-3.8702290076335877,-3.1908396946564888,-0.03591302490234375,-0.277727392578125,9.6917283203125,28.577058823529413
2025-10-20T14:40:00.599890,14.007633587786259,-0.46564885496183206,-3.786259541984733,-0.33518823242187495,0.0383072265625,8.734047656249999,28.53
2025-10-20T14:40:00.616747,16.81679389312977,-1.3511450381679388,-4.5038167938931295,-0.28490999755859375,-0.36152445068359373,9.414000927734374,28.48294117647059
2025-10-20T14:40:00.633592,15.068702290076336,0.13740458015267176,-5.343511450381679,-0.076614453125,0.14604630126953125,8.738836059570312,28.48294117647059
2025-10-20T14:40:00.650436,16.64885496183206,-0.6793893129770993,-5.916030534351145,-0.10295067138671875,0.51714755859375,9.169792358398437,28.624117647058824
2025-10-20T14:40:00.667280,15.977099236641221,-0.022900763358778626,-6.396946564885496,-0.105344873046875,0.40940848388671874,9.370905297851563,28.53
2025-10-20T14:40:00.684134,17.366412213740457,-0.7404580152671756,-7.190839694656488,-0.09816226806640624,0.7445967163085937,9.188945971679686,28.577058823529413
2025-10-20T14:40:00.700998,17.00763358778626,-1.381679389312977,-7.229007633587786,0.20829554443359374,0.44053310546874996,9.006986645507812,28.48294117647059
2025-10-20T14:40:00.717861,16.221374045801525,-0.8015267175572519,-7.816793893129771,0.23223756103515625,0.38307226562499996,9.145850341796875,28.53
2025-10-20T14:40:00.734754,13.83969465648855,0.1984732824427481,-8.01526717557252,-0.031124621582031248,0.5243301635742187,8.904035974121093,28.577058823529413
2025-10-20T14:40:00.751623,12.236641221374045,0.0916030534351145,-8.13740458015267,0.16759411621093748,0.8212111694335937,9.083601098632812,28.577058823529413
2025-10-20T14:40:00.768474,9.251908396946565,0.5877862595419847,-8.259541984732824,0.2705447875976562,0.55545478515625,9.179369165039063,28.53
2025-10-20T14:40:00.785343,6.137404580152672,1.3129770992366412,-8.549618320610687,0.21068974609375,0.4860229370117187,9.208099584960937,28.53
2025-10-20T14:40:00.802195,2.6030534351145036,1.4045801526717556,-8.603053435114504,0.36391865234375,0.44532150878906246,9.169792358398437,28.577058823529413
2025-10-20T14:40:00.819059,-1.213740458015267,2.50381679389313,-8.549618320610687,0.354341845703125,0.4525041137695312,9.382876306152344,28.577058823529413
2025-10-20T14:40:00.835909,-5.580152671755725,3.5114503816793894,-9.045801526717558,0.3327940307617187,0.5530605834960938,9.370905297851563,28.53
2025-10-20T14:40:00.852758,-9.625954198473282,3.595419847328244,-9.022900763358779,0.33518823242187495,0.6607996582031249,9.390058911132812,28.48294117647059
2025-10-20T14:40:00.869608,-14.129770992366412,4.061068702290076,-9.068702290076336,0.41419688720703124,0.6248866333007812,9.445125549316407,28.577058823529413
2025-10-20T14:40:00.886456,-18.709923664122137,4.557251908396947,-9.053435114503817,0.39983167724609375,0.6177040283203125,9.387664709472656,28.53
2025-10-20T14:40:00.903306,-22.64885496183206,4.183206106870229,-8.885496183206106,0.23702596435546874,0.5363011718749999,9.543287817382812,28.435882352941178
2025-10-20T14:40:00.920157,-25.770992366412212,3.7938931297709924,-9.007633587786259,0.201112939453125,0.4477157104492187,9.540893615722656,28.48294117647059
2025-10-20T14:40:00.937007,-28.099236641221374,3.5114503816793894,-8.83969465648855,0.1580173095703125,0.35673604736328124,9.495403784179686,28.577058823529413
2025-10-20T14:40:00.953859,-29.610687022900763,2.3893129770992365,-8.641221374045802,0.033518823242187495,0.3591302490234375,9.30147344970703,28.435882352941178
2025-10-20T14:40:00.970708,-30.69465648854962,1.8244274809160306,-8.34351145038168,0.19153613281249998,0.30406361083984373,9.411606726074218,28.53
2025-10-20T14:40:00.987566,-30.587786259541986,1.748091603053435,-9.732824427480915,0.17956512451171874,0.055066638183593745,9.466673364257812,28.48294117647059
2025-10-20T14:40:01.004461,-29.48854961832061,1.3511450381679388,-7.206106870229007,0.1867477294921875,0.05985504150390625,9.567229833984374,28.53
2025-10-20T14:40:01.021313,-27.6793893129771,1.7404580152671756,-5.7251908396946565,-0.8379705810546875,-1.0654197387695312,8.317456567382813,28.624117647058824
2025-10-20T14:40:01.038127,-23.00763358778626,0.8320610687022901,-4.030534351145038,0.0909796630859375,-0.2705447875976562,9.840168823242188,28.53
2025-10-20T14:40:01.054942,-17.717557251908396,1.8091603053435115,-3.030534351145038,0.55545478515625,-1.4173673828125,8.633491186523438,28.577058823529413
2025-10-20T14:40:01.071752,-19.0,-2.1068702290076335,-2.1068702290076335,0.5123591552734374,-0.5698199951171875,9.64623848876953,28.577058823529413
2025-10-20T14:40:01.088561,-16.87786259541985,-0.9694656488549618,-1.2290076335877862,0.4860229370117187,-0.32561142578124996,9.849745629882811,28.48294117647059
2025-10-20T14:40:01.105388,-13.404580152671755,-0.8549618320610687,-0.40458015267175573,0.3280056274414062,-0.2346317626953125,9.334992272949219,28.577058823529413
2025-10-20T14:40:01.122274,-12.091603053435115,-0.6793893129770993,0.8931297709923665,0.5578489868164063,-0.7134720947265625,9.512163195800781,28.53
2025-10-20T14:40:01.139112,-8.854961832061068,-0.7022900763358778,1.465648854961832,0.9026140258789062,-0.38786066894531246,9.804255798339844,28.577058823529413
2025-10-20T14:40:01.155966,-7.633587786259542,-0.24427480916030533,2.8091603053435112,0.9050082275390624,-0.16041151123046873,9.430760339355468,28.577058823529413
2025-10-20T14:40:01.172805,-6.083969465648855,-2.2290076335877864,2.015267175572519,0.6631938598632812,-0.3495534423828125,9.660603698730467,28.624117647058824
2025-10-20T14:40:01.189646,-5.778625954198473,-1.618320610687023,4.801526717557252,0.6919242797851562,-0.2154781494140625,9.897629663085937,28.624117647058824
2025-10-20T14:40:01.206523,-5.244274809160306,-1.6870229007633588,5.473282442748092,0.5602431884765625,0.1292868896484375,9.528922607421874,28.48294117647059
2025-10-20T14:40:01.223399,-4.938931297709924,-3.3969465648854964,6.0458015267175576,0.5434837768554687,-0.13646949462890623,9.85692823486328,28.53
2025-10-20T14:40:01.240249,-4.320610687022901,-3.282442748091603,6.106870229007634,0.4285620971679687,0.062249243164062495,9.548076220703125,28.577058823529413
2025-10-20T14:40:01.257101,-4.198473282442748,-3.66412213740458,6.206106870229007,0.411802685546875,0.22505495605468748,9.399635717773437,28.577058823529413
2025-10-20T14:40:01.273952,-4.32824427480916,-4.564885496183206,6.213740458015267,0.373495458984375,0.09816226806640624,9.605537060546874,28.53
2025-10-20T14:40:01.290798,-4.297709923664122,-3.3969465648854964,5.977099236641221,0.3327940307617187,0.2561795776367187,9.674968908691406,28.53
2025-10-20T14:40:01.307658,-4.473282442748092,-3.2519083969465647,5.709923664122138,0.22026655273437498,0.2753331909179687,9.512163195800781,28.48294117647059
2025-10-20T14:40:01.324601,-4.290076335877862,-3.1374045801526718,5.305343511450381,0.29927520751953124,0.29448680419921874,9.60793126220703,28.53
2025-10-20T14:40:01.341452,-4.557251908396947,-2.198473282442748,4.99236641221374,0.13407529296874998,0.2442085693359375,9.550470422363281,28.48294117647059
2025-10-20T14:40:01.358306,-4.916030534351145,-2.0610687022900764,4.687022900763359,-0.011971008300781249,0.42377369384765623,9.447519750976562,28.435882352941178
2025-10-20T14:40:01.375169,-5.656488549618321,-1.8854961832061068,4.488549618320611,-0.12689268798828124,0.3687070556640625,9.600748657226562,28.53
2025-10-20T14:40:01.392038,-6.351145038167939,-1.5572519083969465,4.175572519083969,-0.0383072265625,0.48123453369140623,9.576806640625,28.48294117647059
2025-10-20T14:40:01.408974,-7.083969465648855,-1.8396946564885497,3.7786259541984735,-0.10295067138671875,0.36391865234375,9.375693701171874,28.53
2025-10-20T14:40:01.425848,-5.916030534351145,-1.984732824427481,3.6259541984732824,-0.21068974609375,0.354341845703125,9.516951599121093,28.48294117647059
2025-10-20T14:40:01.442698,-8.625954198473282,-1.9083969465648856,3.427480916030534,-0.19871873779296872,0.3064578125,9.229647399902344,28.53
2025-10-20T14:40:01.459545,-8.908396946564885,-2.4656488549618323,2.7480916030534353,-0.3280056274414062,0.2154781494140625,9.370905297851563,28.53
2025-10-20T14:40:01.476393,-9.320610687022901,-2.50381679389313,2.519083969465649,-0.2537853759765625,-0.031124621582031248,9.428366137695312,28.577058823529413
2025-10-20T14:40:01.493258,-9.099236641221374,-2.4732824427480917,2.3282442748091605,-0.143652099609375,-0.38786066894531246,9.260772021484375,28.48294117647059
2025-10-20T14:40:01.510136,-8.83206106870229,-2.2977099236641223,2.572519083969466,-0.028730419921875,-0.5985504150390625,9.239224206542968,28.435882352941178
2025-10-20T14:40:01.527003,-8.16030534351145,-1.6870229007633588,2.9923664122137406,0.1005564697265625,-0.7829039428710937,9.064447485351561,28.48294117647059
2025-10-20T14:40:01.543858,-7.419847328244275,-1.2061068702290076,3.4656488549618323,0.12689268798828124,-0.8307879760742187,9.016563452148437,28.624117647058824
2025-10-20T14:40:01.560702,-6.862595419847328,-0.5648854961832062,3.572519083969466,0.29927520751953124,-0.9169792358398436,9.105148913574219,28.53
2025-10-20T14:40:01.577552,-5.908396946564886,0.2900763358778626,3.564885496183206,0.105344873046875,-0.9696516723632812,9.057264880371093,28.671176470588236
2025-10-20T14:40:01.594401,-5.152671755725191,0.6030534351145038,3.7786259541984735,0.07900865478515624,-1.1563994018554686,8.817844714355468,28.577058823529413
2025-10-20T14:40:01.611263,-6.198473282442748,1.5801526717557253,4.106870229007634,0.20350714111328125,-1.1707646118164061,9.181763366699219,28.53
2025-10-20T14:40:01.628124,-3.519083969465649,1.6412213740458015,3.595419847328244,0.0047884033203125,-1.13006318359375,8.913612780761719,28.577058823529413
2025-10-20T14:40:01.644981,-3.6793893129770994,2.9083969465648853,3.648854961832061,-0.26815058593749996,-0.82360537109375,9.018957653808593,28.48294117647059
2025-10-20T14:40:01.661833,-3.5419847328244276,3.213740458015267,3.648854961832061,-0.1580173095703125,-0.7517793212890624,8.683769421386717,28.53
2025-10-20T14:40:01.678677,-4.694656488549619,4.221374045801527,3.3053435114503817,-0.22266075439453123,-0.9744400756835937,8.63827958984375,28.53
2025-10-20T14:40:01.695522,-4.213740458015267,2.49618320610687,3.114503816793893,-0.15083470458984374,-0.833182177734375,8.865728747558594,28.577058823529413
2025-10-20T14:40:01.712387,-5.152671755725191,4.450381679389313,2.9160305343511452,-0.09576806640624999,-0.7924807495117187,8.892064965820312,28.577058823529413
2025-10-20T14:40:01.729250,-5.122137404580153,4.366412213740458,2.801526717557252,-0.21308394775390624,-0.6272808349609375,8.690952026367187,28.624117647058824
2025-10-20T14:40:01.746101,-7.091603053435114,4.847328244274809,3.0076335877862594,0.105344873046875,-0.3495534423828125,9.133879333496093,28.577058823529413
2025-10-20T14:40:01.762947,-9.16030534351145,5.511450381679389,3.0916030534351147,0.07900865478515624,-0.239420166015625,9.107543115234375,28.48294117647059
2025-10-20T14:40:01.779793,-12.816793893129772,7.770992366412214,3.4580152671755724,0.08858546142578125,-0.1388636962890625,9.196128576660156,28.53
2025-10-20T14:40:01.796630,-15.587786259541986,5.977099236641221,3.5572519083969465,0.05027823486328125,-0.009576806640625,9.344569079589844,28.624117647058824
2025-10-20T14:40:01.813486,-18.83969465648855,6.694656488549619,3.648854961832061,0.0143652099609375,-0.05985504150390625,9.313444458007812,28.48294117647059
2025-10-20T14:40:01.830345,-21.16793893129771,6.564885496183206,3.572519083969466,0.062249243164062495,-0.11731588134765625,9.452308154296874,28.53
2025-10-20T14:40:01.847199,-23.6793893129771,6.152671755725191,3.595419847328244,0.1580173095703125,-0.17238251953125,9.162609753417968,28.53
2025-10-20T14:40:01.864045,-24.244274809160306,6.572519083969466,3.2290076335877864,0.1149216796875,-0.3064578125,9.052476477050782,28.48294117647059
2025-10-20T14:40:01.880884,-25.206106870229007,5.580152671755725,3.030534351145038,0.16519991455078123,-0.2825157958984375,9.052476477050782,28.577058823529413
2025-10-20T14:40:01.897728,-24.984732824427482,4.656488549618321,2.6793893129770994,0.0383072265625,-0.2561795776367187,9.279925634765624,28.624117647058824
2025-10-20T14:40:01.914595,-24.00763358778626,4.67175572519084,1.9694656488549618,-0.023942016601562498,-0.45489831542968745,9.169792358398437,28.53
2025-10-20T14:40:01.931467,-21.61832061068702,3.8244274809160306,1.3053435114503817,-0.047884033203124995,-0.5506663818359374,9.042899670410156,28.577058823529413
2025-10-20T14:40:01.948321,-18.9618320610687,2.7557251908396947,0.6717557251908397,0.296881005859375,-0.7829039428710937,9.112331518554686,28.53
2025-10-20T14:40:01.965229,-16.755725190839694,2.8625954198473282,-1.9389312977099236,0.5386953735351562,-0.9648632690429687,9.028534460449219,28.48294117647059
2025-10-20T14:40:01.982098,-12.648854961832061,3.8625954198473282,-0.549618320610687,0.41419688720703124,-0.9361328491210937,8.990227233886719,28.624117647058824
2025-10-20T14:40:01.998957,-10.19083969465649,0.8396946564885496,-0.648854961832061,0.45010991210937495,-1.0773907470703123,9.34696328125,28.53
2025-10-20T14:40:02.015819,-7.3816793893129775,0.9007633587786259,-1.1374045801526718,0.22744915771484372,-1.2856862915039062,9.045293872070312,28.48294117647059
2025-10-20T14:40:02.032694,-4.396946564885496,0.5954198473282443,-1.297709923664122,0.08379705810546874,-1.426944189453125,8.959102612304687,28.53
2025-10-20T14:40:02.049544,-0.6870229007633588,-0.16030534351145037,-1.5267175572519085,0.16280571289062498,-1.484405029296875,9.129090930175781,28.624117647058824
2025-10-20T14:40:02.066386,2.6030534351145036,0.16793893129770993,-1.5114503816793894,0.26336218261718747,-1.4532804077148436,9.466673364257812,28.671176470588236
2025-10-20T14:40:02.083235,5.244274809160306,-0.0916030534351145,-1.8702290076335877,0.36152445068359373,-1.254561669921875,9.394847314453125,28.624117647058824
2025-10-20T14:40:02.100100,6.404580152671755,-0.4351145038167939,-1.7709923664122138,0.49320554199218747,-1.1540052001953125,9.670180505371093,28.624117647058824
2025-10-20T14:40:02.116953,6.916030534351145,-0.45038167938931295,-1.5038167938931297,0.4477157104492187,-0.93852705078125,9.686939916992188,28.577058823529413
2025-10-20T14:40:02.133809,6.465648854961832,-1.0534351145038168,-1.3969465648854962,0.44053310546874996,-0.5746083984375,9.72285294189453,28.577058823529413
2025-10-20T14:40:02.150666,5.251908396946565,-1.0,-1.2290076335877862,0.4261678955078125,-0.354341845703125,9.873687646484374,28.48294117647059
2025-10-20T14:40:02.167510,3.1374045801526718,-1.2213740458015268,-1.4045801526717556,0.5770026000976562,-0.36152445068359373,9.885658654785155,28.53
2025-10-20T14:40:02.184356,0.2900763358778626,-1.4122137404580153,-1.1755725190839694,0.5578489868164063,-0.12449848632812499,10.129867224121092,28.577058823529413
2025-10-20T14:40:02.201276,-3.2442748091603053,-1.1603053435114503,-1.2061068702290076,0.5913678100585937,-0.5530605834960938,10.196904870605469,28.53
2025-10-20T14:40:02.218148,-5.9541984732824424,-1.1374045801526718,-1.1526717557251909,0.6775590698242188,-0.5458779785156249,9.974244116210937,28.624117647058824
2025-10-20T14:40:02.235020,-11.595419847328245,-1.0687022900763359,-1.1450381679389312,0.6607996582031249,-0.3184288208007812,10.089165795898436,28.577058823529413
2025-10-20T14:40:02.251875,-15.366412213740459,-0.37404580152671757,-1.0229007633587786,0.5865794067382812,-0.74699091796875,9.897629663085937,28.53
2025-10-20T14:40:02.268770,-18.17557251908397,-0.17557251908396945,-1.0916030534351144,0.612915625,-0.612915625,9.698910925292969,28.577058823529413
2025-10-20T14:40:02.285659,-19.954198473282442,0.24427480916030533,-1.2061068702290076,0.5147533569335937,-1.2234370483398436,9.581595043945311,28.577058823529413
2025-10-20T14:40:02.302526,-20.442748091603054,0.48854961832061067,-1.1374045801526718,0.32082302246093747,-1.6543933471679686,9.414000927734374,28.53
2025-10-20T14:40:02.319381,-19.236641221374047,1.1603053435114503,-1.381679389312977,0.16041151123046873,-1.917755529785156,9.03332286376953,28.577058823529413
2025-10-20T14:40:02.336229,-16.519083969465647,1.0687022900763359,-1.2213740458015268,0.11731588134765625,-2.2002713256835937,9.107543115234375,28.48294117647059
2025-10-20T14:40:02.353069,-12.16030534351145,0.6641221374045801,-0.9770992366412213,-0.0430956298828125,-2.370259643554687,8.832209924316405,28.577058823529413
2025-10-20T14:40:02.369911,-6.900763358778626,0.16793893129770993,-0.8778625954198473,-0.19871873779296872,-2.501940734863281,8.678981018066406,28.53
2025-10-20T14:40:02.386759,-1.1145038167938932,-1.0687022900763359,-0.48091603053435117,-0.584185205078125,-2.5043349365234375,8.564059338378906,28.48294117647059
2025-10-20T14:40:02.403694,5.1679389312977095,-2.435114503816794,-0.2900763358778626,-0.6727706665039062,-2.128445275878906,8.772354882812499,28.624117647058824
2025-10-20T14:40:02.420552,8.908396946564885,-2.4427480916030535,-0.2366412213740458,-0.7661445312499999,-2.1164742675781247,8.604760766601562,28.53
2025-10-20T14:40:02.437425,15.511450381679388,-3.7709923664122136,0.3282442748091603,-0.7445967163085937,-1.4915876342773438,8.789114294433594,28.48294117647059
2025-10-20T14:40:02.454279,18.870229007633586,-4.251908396946565,1.0305343511450382,-0.7062894897460937,-1.16837041015625,8.760383874511719,28.53
2025-10-20T14:40:02.471126,22.0381679389313,-4.190839694656488,1.5267175572519085,-0.5698199951171875,-0.9026140258789062,8.980650427246093,28.624117647058824
2025-10-20T14:40:02.487971,22.49618320610687,-4.572519083969466,2.267175572519084,-0.201112939453125,-1.5322890624999999,8.755595471191405,28.577058823529413
2025-10-20T14:40:02.504833,22.580152671755727,-4.213740458015267,2.5572519083969465,0.34715924072265625,-1.1324573852539062,9.483432775878907,28.624117647058824
2025-10-20T14:40:02.521696,22.221374045801525,-2.2213740458015265,3.2519083969465647,0.21068974609375,-1.47482822265625,9.60793126220703,28.624117647058824
2025-10-20T14:40:02.538576,21.862595419847327,-2.717557251908397,3.633587786259542,0.016759411621093748,-1.35990654296875,9.354145886230468,28.577058823529413
2025-10-20T14:40:02.555430,18.977099236641223,-2.1068702290076335,5.824427480916031,-0.20829554443359374,-1.3766659545898436,9.196128576660156,28.577058823529413
2025-10-20T14:40:02.572277,15.961832061068701,-1.0534351145038168,1.9770992366412214,-0.3064578125,-1.2880804931640624,9.081206896972656,28.624117647058824
2025-10-20T14:40:02.589119,12.404580152671755,-1.2748091603053435,3.8702290076335877,-0.062249243164062495,-1.3024457031249999,9.466673364257812,28.577058823529413
2025-10-20T14:40:02.605995,9.65648854961832,-1.9465648854961832,3.2900763358778624,0.05985504150390625,-1.1180921752929687,9.593566052246093,28.53
2025-10-20T14:40:02.622854,6.893129770992366,2.312977099236641,2.404580152671756,-0.12689268798828124,-0.8978256225585937,9.406818322753905,28.53
2025-10-20T14:40:02.639709,4.488549618320611,3.2519083969465647,1.4732824427480915,-0.2657563842773437,-0.7230489013671875,9.006986645507812,28.577058823529413
2025-10-20T14:40:02.656554,1.083969465648855,3.984732824427481,0.5725190839694656,-0.23702596435546874,-0.5865794067382812,9.153032946777342,28.671176470588236
2025-10-20T14:40:02.673394,-3.015267175572519,4.259541984732825,-0.5877862595419847,0.1771709228515625,-0.30406361083984373,9.1554271484375,28.53
2025-10-20T14:40:02.690239,-8.526717557251908,4.984732824427481,-1.8854961832061068,0.45489831542968745,-0.062249243164062495,9.351751684570312,28.53
2025-10-20T14:40:02.707099,-13.992366412213741,4.183206106870229,-3.519083969465649,0.6847416748046875,0.21787235107421873,9.739612353515625,28.48294117647059
2025-10-20T14:40:02.723956,-18.99236641221374,1.984732824427481,-5.412213740458015,0.5219359619140624,0.430956298828125,9.53131680908203,28.624117647058824
2025-10-20T14:40:02.740804,-23.389312977099237,4.984732824427481,-6.175572519083969,0.5051765502929687,-0.36391865234375,9.323021264648437,28.53
2025-10-20T14:40:02.757648,-26.893129770992367,4.480916030534351,-5.694656488549619,0.8403647827148437,-0.9552864624023437,9.504980590820312,28.48294117647059
2025-10-20T14:40:02.774494,-30.427480916030536,4.687022900763359,-4.786259541984733,0.842758984375,-0.7709329345703124,9.686939916992188,28.671176470588236
2025-10-20T14:40:02.791338,-34.11450381679389,5.076335877862595,-4.251908396946565,1.0031704956054688,-0.6081272216796875,9.49300958251953,28.577058823529413
2025-10-20T14:40:02.808304,-37.404580152671755,4.977099236641221,-3.8091603053435112,1.3239935180664062,-0.9074024291992187,9.188945971679686,28.671176470588236
2025-10-20T14:40:02.825210,-38.74809160305343,4.625954198473282,-3.0229007633587788,1.6615759521484375,-1.3575123413085937,8.99501563720703,28.53
2025-10-20T14:40:02.842079,-37.954198473282446,4.809160305343512,-2.3969465648854964,1.3215993164062498,-1.0199299072265624,8.798691101074219,28.577058823529413
2025-10-20T14:40:02.858949,-36.70229007633588,4.419847328244275,-2.3587786259541983,1.0989385620117187,-0.679953271484375,9.038111267089842,28.48294117647059
2025-10-20T14:40:02.875840,-35.847328244274806,1.9541984732824427,-2.1297709923664123,1.0031704956054688,-1.3311761230468748,9.102754711914063,28.53
2025-10-20T14:40:02.892689,-34.732824427480914,3.7251908396946565,-1.9389312977099236,0.7805097412109374,-1.62805712890625,9.14824454345703,28.577058823529413
2025-10-20T14:40:02.909548,-32.030534351145036,2.5343511450381677,-2.1068702290076335,0.6009446166992187,-1.8028338500976562,8.528146313476562,28.48294117647059
2025-10-20T14:40:02.926406,-29.17557251908397,2.2290076335877864,-2.7938931297709924,0.16759411621093748,-1.886630908203125,8.346186987304687,28.53
2025-10-20T14:40:02.943270,-21.50381679389313,1.5038167938931297,-3.6717557251908395,0.02154781494140625,-2.2002713256835937,8.418013037109375,28.577058823529413
2025-10-20T14:40:02.960118,-16.31297709923664,0.9465648854961832,-4.473282442748092,-0.21068974609375,-2.080561242675781,8.688557824707031,28.577058823529413
2025-10-20T14:40:02.976957,-12.351145038167939,0.22137404580152673,-4.793893129770993,-0.2657563842773437,-1.9967641845703124,9.129090930175781,28.577058823529413
2025-10-20T14:40:02.993807,-9.320610687022901,-0.6412213740458015,-5.267175572519084,-0.38786066894531246,-1.7764976318359373,9.220070593261719,28.624117647058824
2025-10-20T14:40:03.010717,-5.969465648854962,-1.0610687022900764,-5.99236641221374,-0.47644613037109373,-1.867477294921875,8.86812294921875,28.577058823529413
2025-10-20T14:40:03.027574,-1.0916030534351144,-2.1755725190839694,-6.541984732824427,-0.6943184814453125,-2.0638018310546875,8.568847741699217,28.624117647058824
2025-10-20T14:40:03.044431,4.656488549618321,-1.9770992366412214,-7.152671755725191,-0.5793968017578125,-2.070984436035156,8.650250598144531,28.577058823529413
2025-10-20T14:40:03.061365,9.305343511450381,-5.137404580152672,-7.435114503816794,-0.430956298828125,-1.6927005737304686,9.105148913574219,28.624117647058824
2025-10-20T14:40:03.078238,12.045801526717558,-5.67175572519084,-7.374045801526718,-0.3016694091796875,-1.608903515625,9.593566052246093,28.624117647058824
2025-10-20T14:40:03.095086,13.427480916030534,-6.320610687022901,-6.977099236641221,-0.2442085693359375,-1.369483349609375,9.227253198242186,28.577058823529413
2025-10-20T14:40:03.111956,15.114503816793894,-6.717557251908397,-6.412213740458015,-0.16041151123046873,-1.3527239379882812,9.179369165039063,28.53
2025-10-20T14:40:03.128843,17.450381679389313,-6.870229007633588,-6.00763358778626,-0.009576806640625,-1.5753846923828123,9.143456140136719,28.718235294117648
2025-10-20T14:40:03.145729,19.68702290076336,-6.9465648854961835,-5.595419847328245,0.16759411621093748,-1.5131354492187499,9.327809667968749,28.577058823529413
2025-10-20T14:40:03.162576,19.603053435114504,-6.541984732824427,-4.549618320610687,0.18435352783203124,-1.0606313354492187,9.701305126953125,28.48294117647059
2025-10-20T14:40:03.179425,17.076335877862597,-6.1679389312977095,-3.549618320610687,0.08858546142578125,-1.1611878051757811,10.046070166015625,28.53
2025-10-20T14:40:03.196274,13.19083969465649,-5.755725190839694,-2.4427480916030535,0.08379705810546874,-1.0917559570312498,10.160991845703125,28.577058823529413
2025-10-20T14:40:03.213140,8.580152671755725,-5.679389312977099,-1.2900763358778626,0.09576806640624999,-1.2018892333984375,9.995791931152343,28.53
2025-10-20T14:40:03.230002,4.465648854961832,-5.022900763358779,0.0916030534351145,0.13407529296874998,-1.4413093994140624,10.007762939453125,28.624117647058824
2025-10-20T14:40:03.246856,1.6870229007633588,-4.145038167938932,1.5419847328244274,0.00718260498046875,-1.7334020019531249,9.943119494628906,28.577058823529413
2025-10-20T14:40:03.263703,-0.3816793893129771,-2.9389312977099236,2.564885496183206,0.23223756103515625,-2.001552587890625,9.746794958496093,28.577058823529413
2025-10-20T14:40:03.280551,-1.3740458015267176,-1.7328244274809161,3.786259541984733,0.011971008300781249,-2.2649147705078123,9.414000927734374,28.624117647058824
2025-10-20T14:40:03.297370,-1.7404580152671756,-0.8015267175572519,4.816793893129771,-0.0047884033203125,-2.5953145996093747,9.351751684570312,28.624117647058824
2025-10-20T14:40:03.314193,-1.1984732824427482,-0.6793893129770993,5.763358778625954,-0.06943184814453125,-2.6719290527343746,9.373299499511718,28.624117647058824
2025-10-20T14:40:03.331003,0.13740458015267176,-0.5419847328244275,6.572519083969466,0.07422025146484375,-2.8371289672851563,9.131485131835937,28.577058823529413
2025-10-20T14:40:03.347821,2.7557251908396947,-0.5877862595419847,7.175572519083969,-0.047884033203124995,-2.863465185546875,9.03332286376953,28.577058823529413
2025-10-20T14:40:03.364682,6.6106870229007635,-1.1526717557251909,7.809160305343512,0.09576806640624999,-2.9927520751953125,8.489839086914062,28.577058823529413
2025-10-20T14:40:03.381473,11.053435114503817,0.8854961832061069,7.488549618320611,-0.5291185668945312,-2.96881005859375,8.240842114257813,28.388823529411766
2025-10-20T14:40:03.398255,16.595419847328245,-0.549618320610687,7.633587786259542,-0.27293898925781246,-2.31758720703125,8.726865051269531,28.48294117647059
2025-10-20T14:40:03.415043,18.213740458015266,-0.45038167938931295,7.267175572519084,-0.5817910034179687,-1.62805712890625,9.351751684570312,28.624117647058824
2025-10-20T14:40:03.431825,20.519083969465647,-1.3053435114503817,6.702290076335878,-0.6536170532226562,-1.3862427612304686,8.954314208984375,28.624117647058824
2025-10-20T14:40:03.448601,20.52671755725191,-1.5572519083969465,6.297709923664122,-0.5147533569335937,-1.1252747802734375,8.916006982421875,28.577058823529413
2025-10-20T14:40:03.465375,19.419847328244273,-2.404580152671756,5.7251908396946565,-0.4333505004882812,-0.7829039428710937,9.042899670410156,28.577058823529413
2025-10-20T14:40:03.482147,16.221374045801525,-1.1908396946564885,5.519083969465649,-0.48123453369140623,-0.47884033203125,9.04050546875,28.577058823529413
2025-10-20T14:40:03.498918,11.793893129770993,-0.29770992366412213,5.251908396946565,-0.4333505004882812,-0.3950432739257812,9.251195214843749,28.48294117647059
2025-10-20T14:40:03.515704,7.419847328244275,-0.015267175572519083,5.022900763358779,-0.2920926025390625,-0.6823474731445313,9.665392102050781,28.671176470588236
2025-10-20T14:40:03.532484,3.50381679389313,3.045801526717557,4.679389312977099,-0.40222587890625,-0.9935936889648437,9.605537060546874,28.577058823529413
2025-10-20T14:40:03.549258,-0.2824427480916031,2.885496183206107,4.2748091603053435,-0.3064578125,-1.2641384765625,9.375693701171874,28.48294117647059
2025-10-20T14:40:03.566032,-4.549618320610687,3.351145038167939,3.7786259541984735,-0.40940848388671874,-1.659181750488281,9.536105212402344,28.577058823529413
2025-10-20T14:40:03.582806,-8.633587786259541,4.091603053435114,3.6946564885496183,-0.27293898925781246,-1.7381904052734374,9.459490759277344,28.577058823529413
2025-10-20T14:40:03.599577,-11.664122137404581,4.061068702290076,3.4732824427480917,-0.16041151123046873,-2.001552587890625,9.437942944335937,28.577058823529413
2025-10-20T14:40:03.616364,-12.244274809160306,4.00763358778626,2.786259541984733,0.21308394775390624,-1.85790048828125,9.042899670410156,28.671176470588236
2025-10-20T14:40:03.633144,-11.877862595419847,5.984732824427481,2.877862595419847,0.46208092041015625,-1.3527239379882812,8.942343200683593,28.577058823529413
2025-10-20T14:40:03.649972,-12.625954198473282,6.763358778625954,3.2519083969465647,0.9337386474609375,-0.6847416748046875,8.8872765625,28.577058823529413
2025-10-20T14:40:03.666774,-16.267175572519083,7.297709923664122,3.5343511450381677,1.0319009155273438,-0.15562310791015624,9.126696728515624,28.48294117647059
2025-10-20T14:40:03.683555,-19.549618320610687,8.106870229007633,4.236641221374046,1.0582371337890624,-0.03591302490234375,9.708487731933593,28.577058823529413
2025-10-20T14:40:03.700453,-25.786259541984734,8.045801526717558,4.282442748091603,1.1324573852539062,-0.1388636962890625,9.976638317871092,28.624117647058824
2025-10-20T14:40:03.717241,-27.954198473282442,6.717557251908397,3.480916030534351,1.3742717529296875,-0.01915361328125,9.801861596679688,28.53
2025-10-20T14:40:03.734016,-29.19083969465649,6.1679389312977095,2.2442748091603053,1.455674609375,0.0383072265625,9.423577734375,28.624117647058824
2025-10-20T14:40:03.750789,-30.885496183206108,5.038167938931298,0.21374045801526717,1.649604943847656,-0.028730419921875,9.14824454345703,28.624117647058824
2025-10-20T14:40:03.767562,-33.55725190839695,3.8625954198473282,-1.2595419847328244,1.7645266235351562,-0.7326257080078125,9.217676391601563,28.53
2025-10-20T14:40:03.784333,-35.55725190839695,3.4198473282442747,-1.2366412213740459,1.62805712890625,-2.1452046874999997,9.548076220703125,28.624117647058824
2025-10-20T14:40:03.801107,-35.725190839694655,3.366412213740458,-0.8015267175572519,1.1947066284179686,-1.9656395629882812,9.469067565917967,28.53
2025-10-20T14:40:03.817898,-35.70992366412214,3.732824427480916,-0.40458015267175573,0.7517793212890624,-1.5658078857421873,9.126696728515624,28.624117647058824
2025-10-20T14:40:03.834682,-34.93893129770992,4.770992366412214,-0.3511450381679389,0.3758896606445312,-1.9943699829101562,8.628702783203124,28.624117647058824
2025-10-20T14:40:03.851458,-34.19083969465649,5.198473282442748,-0.2748091603053435,0.1388636962890625,-1.9656395629882812,8.762778076171875,28.624117647058824
2025-10-20T14:40:03.868230,-33.98473282442748,4.778625954198473,-0.08396946564885496,-0.00239420166015625,-1.9512743530273435,8.82263311767578,28.53
2025-10-20T14:40:03.885001,-32.97709923664122,6.114503816793893,-0.5419847328244275,-0.13407529296874998,-2.138022082519531,8.736441857910156,28.577058823529413
2025-10-20T14:40:03.901783,-30.053435114503817,6.572519083969466,-1.366412213740458,-0.22266075439453123,-2.5139117431640625,8.386888415527343,28.577058823529413
2025-10-20T14:40:03.918623,-25.015267175572518,5.480916030534351,-3.8702290076335877,-0.2561795776367187,-2.7916391357421872,8.233659509277343,28.53
2025-10-20T14:40:03.935403,-20.19083969465649,4.412213740458015,-2.2061068702290076,-0.2154781494140625,-3.0262708984374997,8.678981018066406,28.624117647058824
2025-10-20T14:40:03.952176,-17.740458015267176,3.053435114503817,-2.6106870229007635,-0.031124621582031248,-2.437297290039062,8.686163623046875,28.624117647058824
2025-10-20T14:40:03.968949,-16.450381679389313,0.40458015267175573,-2.49618320610687,0.6488286499023437,-1.8243816650390623,8.86812294921875,28.53
2025-10-20T14:40:03.985740,-15.80916030534351,-2.198473282442748,-2.16793893129771,0.814028564453125,-1.5011644409179687,9.246406811523437,28.624117647058824
2025-10-20T14:40:04.002533,-15.67175572519084,-3.801526717557252,-1.4427480916030535,0.5961562133789062,-1.455674609375,9.509768994140625,28.624117647058824
2025-10-20T14:40:04.019328,-17.793893129770993,-4.549618320610687,-0.40458015267175573,0.0143652099609375,-1.7597382202148437,9.165003955078124,28.53
2025-10-20T14:40:04.036128,-19.38167938931298,-5.366412213740458,0.32061068702290074,-0.05027823486328125,-2.2074539306640624,9.042899670410156,28.624117647058824
2025-10-20T14:40:04.052908,-19.580152671755727,-4.99236641221374,0.44274809160305345,0.033518823242187495,-2.3151930053710936,9.112331518554686,28.624117647058824
2025-10-20T14:40:04.069680,-18.770992366412212,-3.984732824427481,0.5801526717557252,-0.011971008300781249,-2.3582886352539063,8.949525805664061,28.624117647058824
2025-10-20T14:40:04.086453,-17.38167938931298,-2.8931297709923665,-0.08396946564885496,-0.13168109130859373,-2.2002713256835937,8.961496813964843,28.577058823529413
2025-10-20T14:40:04.103236,-15.793893129770993,-1.16793893129771,-0.9618320610687023,-0.28969840087890625,-2.2936451904296873,9.121908325195312,28.577058823529413
2025-10-20T14:40:04.120019,-14.641221374045802,0.7404580152671756,-1.7404580152671756,-0.5817910034179687,-2.549824768066406,9.006986645507812,28.577058823529413
2025-10-20T14:40:04.136794,-14.01526717557252,2.33587786259542,-2.4732824427480917,-0.8499415893554687,-2.233790148925781,8.734047656249999,28.577058823529413
2025-10-20T14:40:04.153568,-13.595419847328245,2.931297709923664,-2.9618320610687023,-0.928950244140625,-2.6216508178710938,8.71489404296875,28.577058823529413
2025-10-20T14:40:04.170342,-7.022900763358779,2.5801526717557253,-2.9236641221374047,-0.7924807495117187,-2.7820623291015623,8.492233288574218,28.671176470588236
2025-10-20T14:40:04.187116,-0.6564885496183206,1.4351145038167938,-2.8244274809160306,-0.7541735229492187,-3.2537200561523436,8.106766821289062,28.671176470588236
2025-10-20T14:40:04.203895,5.8320610687022905,-0.5190839694656488,-2.3893129770992365,-0.7422025146484375,-3.1196447631835937,7.819462622070312,28.577058823529413
2025-10-20T14:40:04.220685,11.412213740458014,-3.0229007633587788,-1.8702290076335877,-0.6536170532226562,-3.208230224609375,8.123526232910155,28.577058823529413
2025-10-20T14:40:04.237462,15.931297709923664,-5.519083969465649,-1.450381679389313,-0.5219359619140624,-3.306392492675781,8.520963708496094,28.577058823529413
2025-10-20T14:40:04.254248,20.213740458015266,-7.3893129770992365,-0.8244274809160306,-0.36152445068359373,-3.277662072753906,8.750807067871094,28.624117647058824
2025-10-20T14:40:04.271029,24.458015267175572,-7.8320610687022905,-0.2748091603053435,-0.2561795776367187,-3.229778039550781,8.973467822265624,28.53
2025-10-20T14:40:04.287803,28.50381679389313,-9.091603053435115,-1.916030534351145,-0.39264907226562495,-2.9496564453125,9.162609753417968,28.53
2025-10-20T14:40:04.304657,29.770992366412212,-6.717557251908397,0.26717557251908397,-0.5626373901367188,-3.028665100097656,8.777143286132812,28.671176470588236
2025-10-20T14:40:04.321441,31.427480916030536,-5.923664122137405,0.6564885496183206,-0.3902548706054687,-2.932897033691406,9.088389501953124,28.48294117647059
2025-10-20T14:40:04.338217,31.801526717557252,-4.083969465648855,1.0458015267175573,-0.39264907226562495,-3.143586779785156,9.315838659667968,28.577058823529413
2025-10-20T14:40:04.354989,32.62595419847328,-2.2290076335877864,1.282442748091603,-0.3112462158203125,-3.1747114013671873,9.121908325195312,28.577058823529413
2025-10-20T14:40:04.371772,32.25954198473283,-0.549618320610687,1.3587786259541985,-0.38307226562499996,-3.1220389648437497,9.023746057128905,28.624117647058824
2025-10-20T14:40:04.388551,33.282442748091604,0.35877862595419846,1.2290076335877862,-0.32561142578124996,-3.057395520019531,8.846575134277343,28.624117647058824
2025-10-20T14:40:04.405343,33.00763358778626,0.17557251908396945,1.1603053435114503,-0.2920926025390625,-3.057395520019531,9.17458076171875,28.624117647058824
2025-10-20T14:40:04.422127,33.97709923664122,0.4351145038167939,0.648854961832061,-0.2537853759765625,-3.1292215698242187,9.344569079589844,28.53
2025-10-20T14:40:04.438900,34.25954198473283,-0.5877862595419847,0.4732824427480916,0.11731588134765625,-3.1651345947265623,9.215282189941405,28.53
2025-10-20T14:40:04.455677,35.48091603053435,-1.2366412213740459,0.48854961832061067,0.1484405029296875,-3.201047619628906,9.028534460449219,28.53
2025-10-20T14:40:04.472449,37.541984732824424,-0.37404580152671757,0.26717557251908397,0.1771709228515625,-2.530671154785156,8.923189587402343,28.624117647058824
2025-10-20T14:40:04.489430,37.00763358778626,-0.8473282442748091,0.12213740458015267,-0.13407529296874998,-1.8602946899414061,8.652644799804687,28.53
2025-10-20T14:40:04.506244,35.05343511450382,-1.6641221374045803,-0.015267175572519083,-0.5506663818359374,-1.5251064575195312,8.942343200683593,28.624117647058824
2025-10-20T14:40:04.523031,31.717557251908396,-0.8854961832061069,-0.5190839694656488,-0.6967126831054687,-1.3862427612304686,9.4618849609375,28.53
2025-10-20T14:40:04.539816,28.244274809160306,-0.24427480916030533,-1.2900763358778626,-0.7805097412109374,-1.20667763671875,9.701305126953125,28.624117647058824
2025-10-20T14:40:04.556603,24.709923664122137,-0.5114503816793893,-1.9694656488549618,-0.5698199951171875,-1.448492004394531,9.78031378173828,28.53
2025-10-20T14:40:04.573377,20.923664122137403,0.8625954198473282,-2.717557251908397,-0.34237083740234375,-1.4508862060546874,9.744400756835937,28.624117647058824
2025-10-20T14:40:04.590152,16.213740458015266,2.49618320610687,-2.648854961832061,-0.2537853759765625,-1.0606313354492187,9.521740002441407,28.624117647058824
2025-10-20T14:40:04.606946,9.572519083969466,3.068702290076336,-2.6412213740458017,-0.22505495605468748,-0.9241618408203125,9.145850341796875,28.53
2025-10-20T14:40:04.623724,2.572519083969466,3.49618320610687,-2.6259541984732824,-0.17238251953125,-0.9169792358398436,9.648632690429688,28.624117647058824
2025-10-20T14:40:04.640498,-3.5343511450381677,4.66412213740458,-2.5801526717557253,-0.12689268798828124,-0.8906430175781249,10.098742602539062,28.53
2025-10-20T14:40:04.657269,-7.900763358778626,4.0,-2.450381679389313,-0.12210428466796874,-0.8858546142578124,9.976638317871092,28.577058823529413
