timestamp,gyro_x,gyro_y,gyro_z,acc_x,acc_y,acc_z,temp
2025-10-20T14:41:22.289520,-9.587786259541986,-0.8396946564885496,2.122137404580153,0.3854664672851562,-1.407790576171875,8.688557824707031,28.718235294117648
2025-10-20T14:41:22.308293,-3.786259541984733,-1.6106870229007633,1.9312977099236641,0.4381389038085937,-1.3670891479492187,8.772354882812499,28.76529411764706
2025-10-20T14:41:22.327946,-1.4580152671755726,-0.022900763358778626,3.877862595419847,0.38307226562499996,-0.679953271484375,9.387664709472656,28.81235294117647
2025-10-20T14:41:22.350777,-0.3435114503816794,0.35877862595419846,2.045801526717557,0.40462008056640625,-1.0558429321289062,9.188945971679686,28.76529411764706
2025-10-20T14:41:22.369399,-1.8091603053435115,0.25190839694656486,2.0229007633587788,0.229843359375,-0.9888052856445312,9.3086560546875,28.81235294117647
2025-10-20T14:41:22.388821,-0.8931297709923665,3.7709923664122136,1.9770992366412214,-0.16759411621093748,-1.209071838378906,9.181763366699219,28.76529411764706
2025-10-20T14:41:22.411361,-0.11450381679389313,1.9083969465648856,2.053435114503817,0.16041151123046873,-0.6488286499023437,9.258377819824219,28.81235294117647
2025-10-20T14:41:22.430913,-1.381679389312977,1.1374045801526718,2.366412213740458,-0.45968671875,-0.4860229370117187,9.208099584960937,28.718235294117648
2025-10-20T14:41:22.448834,-5.473282442748092,0.06870229007633588,2.4580152671755724,-0.15562310791015624,-0.63206923828125,9.315838659667968,28.81235294117647
2025-10-20T14:41:22.471146,-7.2748091603053435,1.0229007633587786,2.267175572519084,-0.26336218261718747,-0.8906430175781249,9.409212524414063,28.718235294117648
2025-10-20T14:41:22.491518,-7.687022900763359,0.0916030534351145,2.16793893129771,-0.3591302490234375,-1.1085153686523437,8.760383874511719,28.76529411764706
2025-10-20T14:41:22.509290,-7.412213740458015,-0.48854961832061067,2.0916030534351147,-0.12449848632812499,-1.7094599853515624,8.91840118408203,28.81235294117647
2025-10-20T14:41:22.531417,-6.9541984732824424,-0.06870229007633588,2.1908396946564888,-0.13646949462890623,-1.6400281372070311,9.0788126953125,28.859411764705882
2025-10-20T14:41:22.552836,-6.061068702290076,-0.061068702290076333,2.66412213740458,0.09576806640624999,-1.9488801513671874,8.920795385742187,28.81235294117647
2025-10-20T14:41:22.569912,-2.50381679389313,-0.06870229007633588,2.786259541984733,0.1771709228515625,-2.1404162841796874,8.961496813964843,28.76529411764706
2025-10-20T14:41:22.592189,0.17557251908396945,-0.20610687022900764,3.0610687022900764,0.41419688720703124,-2.272097375488281,8.513781103515624,28.859411764705882
2025-10-20T14:41:22.614666,9.297709923664122,-0.22900763358778625,3.687022900763359,0.00239420166015625,-2.29843359375,8.846575134277343,28.81235294117647
2025-10-20T14:41:22.631602,16.404580152671755,-0.4732824427480916,3.7786259541984735,-0.10773907470703124,-2.3630770385742186,8.79150849609375,28.577058823529413
2025-10-20T14:41:22.653840,21.977099236641223,-1.8091603053435115,3.8625954198473282,-0.06943184814453125,-2.061407629394531,8.683769421386717,28.859411764705882
2025-10-20T14:41:22.677136,29.9618320610687,-2.4427480916030535,3.50381679389313,-0.612915625,-2.003946789550781,8.497021691894531,28.718235294117648
2025-10-20T14:41:22.694066,38.98473282442748,-4.259541984732825,2.6793893129770994,-0.40222587890625,-1.879448303222656,8.429984045410155,28.76529411764706
2025-10-20T14:41:22.715591,44.70992366412214,-6.229007633587786,2.0076335877862594,-0.24899697265624998,-1.3263877197265623,9.124302526855468,28.718235294117648
2025-10-20T14:41:22.738796,49.19847328244275,-7.038167938931298,3.900763358778626,-0.36391865234375,-1.458068811035156,9.184157568359375,28.859411764705882
2025-10-20T14:41:22.756133,48.57251908396947,-7.366412213740458,2.0916030534351147,0.03591302490234375,-0.29448680419921874,9.129090930175781,28.81235294117647
2025-10-20T14:41:22.776455,48.98473282442748,-4.595419847328245,2.053435114503817,0.36631285400390623,-0.277727392578125,9.730035546875,28.76529411764706
2025-10-20T14:41:22.799228,48.229007633587784,-6.786259541984733,2.2061068702290076,0.30406361083984373,-0.03591302490234375,9.698910925292969,28.76529411764706
2025-10-20T14:41:22.817838,47.06106870229008,-5.541984732824427,1.7328244274809161,0.7924807495117187,1.0582371337890624,9.883264453125,28.81235294117647
2025-10-20T14:41:22.836796,40.7557251908397,-2.8396946564885495,1.900763358778626,0.16998831787109375,0.5410895751953124,9.533711010742186,28.81235294117647
2025-10-20T14:41:22.859397,30.85496183206107,-2.66412213740458,1.6259541984732824,1.3000515014648437,1.4604630126953124,10.254365710449218,28.718235294117648
2025-10-20T14:41:22.878975,15.48091603053435,-1.6488549618320612,1.7938931297709924,1.429338391113281,0.6248866333007812,10.110713610839843,28.76529411764706
2025-10-20T14:41:22.897648,4.534351145038168,-0.07633587786259542,1.366412213740458,1.3527239379882812,1.0295067138671874,10.764330664062498,28.81235294117647
2025-10-20T14:41:22.919946,-5.1679389312977095,1.251908396946565,1.366412213740458,1.2521674682617188,1.3455413330078123,10.716446630859375,28.76529411764706
2025-10-20T14:41:22.939552,-17.244274809160306,0.13740458015267176,1.381679389312977,0.5051765502929687,1.254561669921875,9.995791931152343,28.81235294117647
2025-10-20T14:41:22.958266,-21.6793893129771,2.6793893129770994,1.9541984732824427,0.5363011718749999,0.32561142578124996,10.455478649902343,28.76529411764706
2025-10-20T14:41:22.980856,-34.30534351145038,4.206106870229007,1.2442748091603053,-0.0526724365234375,0.7613561279296874,9.425971936035156,28.81235294117647
2025-10-20T14:41:23.000959,-40.14503816793893,3.9923664122137406,0.8015267175572519,-0.2561795776367187,0.3280056274414062,9.421183532714844,28.76529411764706
2025-10-20T14:41:23.019345,-43.587786259541986,4.9541984732824424,0.2824427480916031,-0.565031591796875,-0.0718260498046875,9.387664709472656,28.81235294117647
2025-10-20T14:41:23.041833,-44.97709923664122,5.061068702290076,-0.7175572519083969,-0.7996633544921875,0.27293898925781246,9.414000927734374,28.76529411764706
2025-10-20T14:41:23.062361,-46.534351145038165,3.3053435114503817,-1.0687022900763359,-0.7350199096679687,-0.1005564697265625,9.440337145996093,28.671176470588236
2025-10-20T14:41:23.079766,-44.229007633587784,5.633587786259542,-1.8854961832061068,-0.45010991210937495,-0.5434837768554687,8.413224633789062,28.906470588235294
2025-10-20T14:41:23.102047,-38.38167938931298,2.8473282442748094,-3.099236641221374,-0.1005564697265625,-0.5793968017578125,8.336610180664062,28.81235294117647
2025-10-20T14:41:23.123550,-31.702290076335878,2.33587786259542,-3.6030534351145036,0.4070142822265625,-1.199495031738281,8.55448253173828,28.859411764705882
2025-10-20T14:41:23.140440,-24.580152671755727,1.7251908396946565,-3.8091603053435112,0.18914193115234373,-1.0678139404296874,8.992621435546875,28.859411764705882
2025-10-20T14:41:23.162861,-18.366412213740457,-0.45038167938931295,-3.595419847328244,0.47165772705078124,-1.2713210815429687,9.045293872070312,28.76529411764706
2025-10-20T14:41:23.185116,-10.664122137404581,-0.7786259541984732,-2.7938931297709924,0.15322890625,-1.4125789794921875,8.607154968261717,28.76529411764706
2025-10-20T14:41:23.202046,-0.6335877862595419,-2.5267175572519083,-2.50381679389313,0.3711012573242187,-1.7764976318359373,8.40843623046875,28.718235294117648
2025-10-20T14:41:23.224297,6.99236641221374,-1.8625954198473282,-1.786259541984733,0.30885201416015623,-1.9752163696289062,8.437166650390624,28.76529411764706
2025-10-20T14:41:23.248833,17.870229007633586,-2.717557251908397,-1.251908396946565,0.3591302490234375,-2.0254946044921875,8.975862023925782,28.859411764705882
2025-10-20T14:41:23.266547,28.404580152671755,-1.2748091603053435,-0.31297709923664124,0.12449848632812499,-1.924938134765625,8.686163623046875,28.859411764705882
2025-10-20T14:41:23.287457,35.343511450381676,-0.7557251908396947,1.7938931297709924,-0.7206546997070312,-1.3575123413085937,9.018957653808593,28.81235294117647
2025-10-20T14:41:23.310654,38.954198473282446,-0.9618320610687023,0.5877862595419847,-0.8571241943359375,-1.7621324218749999,7.357381701660156,28.81235294117647
2025-10-20T14:41:23.328478,47.43511450381679,-3.595419847328244,0.20610687022900764,-0.33039982910156246,-0.3232172241210937,8.71489404296875,28.76529411764706
2025-10-20T14:41:23.348549,51.038167938931295,-2.3893129770992365,-1.9541984732824427,0.031124621582031248,-0.1771709228515625,8.951920007324219,28.76529411764706
2025-10-20T14:41:23.371343,51.3206106870229,-3.1374045801526718,0.48091603053435117,-0.201112939453125,0.9145850341796874,9.514557397460937,28.81235294117647
2025-10-20T14:41:23.390721,45.38167938931298,-2.717557251908397,-0.06870229007633588,0.08379705810546874,1.01514150390625,9.540893615722656,28.76529411764706
2025-10-20T14:41:23.410174,37.29007633587786,-3.3587786259541983,-0.16030534351145037,0.296881005859375,1.599326708984375,9.82580361328125,28.76529411764706
2025-10-20T14:41:23.432134,28.091603053435115,-2.381679389312977,-0.7480916030534351,0.6560112548828124,1.8507178833007811,10.175357055664062,28.718235294117648
2025-10-20T14:41:23.451989,14.916030534351146,0.20610687022900764,-0.9770992366412213,0.6631938598632812,1.9776105712890624,10.096348400878906,28.859411764705882
2025-10-20T14:41:23.469543,-1.2748091603053435,3.900763358778626,-0.4580152671755725,0.6057330200195312,1.8267758666992187,10.381258398437499,28.76529411764706
2025-10-20T14:41:23.491454,-17.396946564885496,2.7251908396946565,0.7175572519083969,0.8738836059570312,2.1691467041015624,10.27830772705078,28.76529411764706
2025-10-20T14:41:23.512609,-35.58015267175573,6.3893129770992365,2.030534351145038,1.218648645019531,1.407790576171875,10.728417639160156,28.81235294117647
2025-10-20T14:41:23.529674,-46.099236641221374,5.343511450381679,3.381679389312977,0.9888052856445312,0.6177040283203125,10.129867224121092,28.76529411764706
2025-10-20T14:41:23.551837,-51.93129770992366,8.687022900763358,3.595419847328244,0.5123591552734374,-0.26336218261718747,10.556035119628906,28.718235294117648
2025-10-20T14:41:23.573847,-60.18320610687023,5.267175572519084,4.4961832061068705,0.1484405029296875,0.316034619140625,9.464279162597656,28.76529411764706
2025-10-20T14:41:23.591049,-63.57251908396947,8.595419847328245,3.8702290076335877,-0.13407529296874998,-0.7398083129882812,9.442731347656249,28.81235294117647
2025-10-20T14:41:23.613355,-63.091603053435115,8.045801526717558,2.946564885496183,0.15083470458984374,-1.1731588134765625,9.121908325195312,28.718235294117648
2025-10-20T14:41:23.636714,-53.00763358778626,6.358778625954199,1.7786259541984732,0.0383072265625,-1.5921441040039062,8.920795385742187,28.718235294117648
2025-10-20T14:41:23.653764,-41.57251908396947,5.8396946564885495,1.0076335877862594,-0.19632453613281248,-1.4437036010742186,8.511386901855468,28.81235294117647
2025-10-20T14:41:23.675703,-36.85496183206107,3.3969465648854964,0.5419847328244275,-0.2705447875976562,-1.7788918334960937,8.884882360839843,28.81235294117647
2025-10-20T14:41:23.698839,-24.801526717557252,0.9923664122137404,-0.5725190839694656,-0.3591302490234375,-1.9297265380859374,8.422801440429687,28.76529411764706
2025-10-20T14:41:23.715854,-6.511450381679389,-1.1603053435114503,-1.9083969465648856,-0.5291185668945312,-2.0278888061523435,8.154650854492187,28.76529411764706
2025-10-20T14:41:23.737384,6.717557251908397,-0.04580152671755725,-3.0763358778625953,-0.507570751953125,-2.032677209472656,8.085219006347655,28.76529411764706
2025-10-20T14:41:23.760539,21.15267175572519,-3.8625954198473282,-4.312977099236641,-0.19153613281249998,-1.4772224243164063,8.429984045410155,28.76529411764706
2025-10-20T14:41:23.777879,32.18320610687023,-4.145038167938932,-4.450381679389313,-0.3136404174804687,-1.419761584472656,8.695740429687499,28.76529411764706
2025-10-20T14:41:23.797976,40.52671755725191,-4.816793893129771,-5.206106870229007,-0.4261678955078125,-0.05746083984375,9.928754284667969,28.906470588235294
2025-10-20T14:41:23.820721,44.18320610687023,-5.770992366412214,-5.3893129770992365,0.11731588134765625,-0.08379705810546874,9.619902270507811,28.81235294117647
2025-10-20T14:41:23.841758,47.54961832061068,-6.6183206106870225,-5.106870229007634,0.42377369384765623,-0.5698199951171875,8.645462194824217,28.859411764705882
2025-10-20T14:41:23.859914,48.33587786259542,-4.732824427480916,-4.419847328244275,0.21068974609375,-0.13407529296874998,9.402029919433593,28.81235294117647
2025-10-20T14:41:23.882312,43.87022900763359,-4.793893129770993,-3.4732824427480917,0.6727706665039062,0.3112462158203125,9.404424121093749,28.76529411764706
2025-10-20T14:41:23.903477,38.14503816793893,-3.66412213740458,-2.6793893129770994,0.6607996582031249,1.0989385620117187,9.873687646484374,28.671176470588236
2025-10-20T14:41:23.920355,28.81679389312977,-2.633587786259542,-0.05343511450381679,0.6464344482421874,0.833182177734375,9.789890588378906,28.76529411764706
2025-10-20T14:41:23.942295,19.908396946564885,-3.816793893129771,-1.4732824427480915,0.8020575561523438,1.1372457885742187,10.144232434082031,28.76529411764706
2025-10-20T14:41:23.963992,9.725190839694656,-0.2900763358778626,-0.8854961832061069,0.7589619262695312,0.8571241943359375,9.955090502929687,28.76529411764706
2025-10-20T14:41:23.980861,-5.984732824427481,0.05343511450381679,0.16030534351145037,0.6272808349609375,0.7062894897460937,9.86411083984375,28.81235294117647
2025-10-20T14:41:24.002945,-16.549618320610687,1.6641221374045803,1.4580152671755726,0.2537853759765625,0.7757213378906249,9.744400756835937,28.81235294117647
2025-10-20T14:41:24.025501,-27.236641221374047,4.2748091603053435,2.4122137404580153,-0.25139117431640623,-0.469263525390625,9.409212524414063,28.671176470588236
2025-10-20T14:41:24.042370,-33.02290076335878,3.145038167938931,2.9923664122137406,0.33518823242187495,-0.23702596435546874,9.382876306152344,28.76529411764706
2025-10-20T14:41:24.064581,-36.3587786259542,5.137404580152672,2.7022900763358777,0.42377369384765623,-0.21308394775390624,9.473855969238281,28.81235294117647
2025-10-20T14:41:24.088007,-39.595419847328245,5.122137404580153,2.5572519083969465,-0.3327940307617187,-0.33518823242187495,9.725247143554688,28.76529411764706
2025-10-20T14:41:24.104878,-41.16030534351145,6.00763358778626,2.4122137404580153,-0.7445967163085937,-0.19393033447265623,9.593566052246093,28.718235294117648
2025-10-20T14:41:24.125940,-42.29770992366412,7.633587786259542,2.0763358778625953,-0.354341845703125,-1.0893617553710937,8.214505895996094,28.76529411764706
2025-10-20T14:41:24.148913,-38.57251908396947,4.557251908396947,1.465648854961832,-0.076614453125,-0.8164227661132812,9.162609753417968,28.76529411764706
2025-10-20T14:41:24.166237,-34.17557251908397,4.236641221374046,0.8244274809160306,-0.39743747558593745,-0.8714894042968749,8.566453540039062,28.76529411764706
2025-10-20T14:41:24.186593,-32.32824427480916,1.916030534351145,0.5114503816793893,-0.1580173095703125,-0.9193734375,8.836998327636719,28.718235294117648
2025-10-20T14:41:24.209292,-30.18320610687023,3.732824427480916,1.900763358778626,-0.16041151123046873,-1.0079588989257813,9.277531433105468,28.76529411764706
2025-10-20T14:41:24.227482,-27.458015267175572,1.2366412213740459,-0.32061068702290074,-0.08140285644531249,-1.5370774658203123,8.8872765625,28.76529411764706
2025-10-20T14:41:24.247832,-23.81679389312977,0.22137404580152673,-0.5725190839694656,-0.21068974609375,-1.2808978881835937,8.719682446289061,28.81235294117647
2025-10-20T14:41:24.270708,-21.740458015267176,0.7633587786259542,-0.6946564885496184,0.33039982910156246,-1.3383587280273437,9.200916979980468,28.859411764705882
2025-10-20T14:41:24.288950,-20.893129770992367,0.8396946564885496,-0.4732824427480916,0.3495534423828125,-1.2569558715820313,8.942343200683593,28.76529411764706
2025-10-20T14:41:24.308939,-18.114503816793892,1.786259541984733,-0.4580152671755725,0.15322890625,-1.5538368774414062,9.222464794921875,28.81235294117647
2025-10-20T14:41:24.333300,-15.122137404580153,0.4732824427480916,-0.8320610687022901,0.181959326171875,-1.47482822265625,8.961496813964843,28.81235294117647
2025-10-20T14:41:24.351503,-11.664122137404581,-0.007633587786259542,-0.6259541984732825,-0.0143652099609375,-1.5275006591796874,9.447519750976562,28.859411764705882
2025-10-20T14:41:24.371209,-10.213740458015268,0.3969465648854962,-1.0458015267175573,-0.011971008300781249,-1.8698714965820311,8.853757739257812,28.859411764705882
2025-10-20T14:41:24.393705,-8.526717557251908,-0.26717557251908397,-0.8854961832061069,0.033518823242187495,-1.6208745239257811,9.222464794921875,28.718235294117648
2025-10-20T14:41:24.412861,-6.183206106870229,-1.8244274809160306,-1.1374045801526718,-0.28490999755859375,-1.7262193969726563,8.939948999023438,28.76529411764706
2025-10-20T14:41:24.432149,-4.312977099236641,-1.8854961832061068,-0.8091603053435115,0.086191259765625,-0.718260498046875,9.153032946777342,28.76529411764706
2025-10-20T14:41:24.455089,-6.862595419847328,-1.7404580152671756,-0.8396946564885496,0.33039982910156246,-0.6727706665039062,9.777919580078125,28.76529411764706
2025-10-20T14:41:24.474648,-10.320610687022901,0.35877862595419846,-0.21374045801526717,0.27293898925781246,-1.608903515625,9.351751684570312,28.76529411764706
2025-10-20T14:41:24.494500,-11.80916030534351,1.5877862595419847,-0.061068702290076333,0.086191259765625,-1.4628572143554686,9.507374792480467,28.81235294117647
2025-10-20T14:41:24.516814,-11.770992366412214,0.33587786259541985,0.2900763358778626,-0.086191259765625,-2.094926452636719,8.724470849609375,28.76529411764706
2025-10-20T14:41:24.538547,-12.16793893129771,0.5725190839694656,0.5114503816793893,0.033518823242187495,-1.7621324218749999,9.555258825683593,28.76529411764706
2025-10-20T14:41:24.555516,-13.320610687022901,0.7480916030534351,0.9770992366412213,0.0909796630859375,-1.8602946899414061,9.718064538574218,28.718235294117648
2025-10-20T14:41:24.577876,-12.893129770992367,-1.6259541984732824,1.3053435114503817,-0.06464344482421874,-2.090138049316406,9.526528405761718,28.859411764705882
2025-10-20T14:41:24.600050,-12.030534351145038,1.6259541984732824,1.3129770992366412,0.181959326171875,-1.9608511596679685,8.939948999023438,28.859411764705882
2025-10-20T14:41:24.616923,-11.557251908396946,1.0610687022900764,1.534351145038168,0.1771709228515625,-1.956062756347656,9.047688073730468,28.81235294117647
2025-10-20T14:41:24.639244,-8.34351145038168,0.25190839694656486,1.3435114503816794,-0.17956512451171874,-1.599326708984375,9.344569079589844,28.76529411764706
2025-10-20T14:41:24.661896,-5.320610687022901,1.5190839694656488,0.8931297709923665,-0.1580173095703125,-2.4133552734375,8.781931689453124,28.81235294117647
2025-10-20T14:41:24.678866,-1.8931297709923665,-0.6564885496183206,0.5801526717557252,-0.49320554199218747,-2.27927998046875,8.798691101074219,28.81235294117647
2025-10-20T14:41:24.701183,2.8396946564885495,1.4885496183206106,1.7938931297709924,-0.8547299926757812,-2.2744915771484373,8.71489404296875,28.81235294117647
2025-10-20T14:41:24.723375,5.99236641221374,-1.7251908396946565,-0.8091603053435115,-0.5458779785156249,-2.346317626953125,8.729259252929687,28.718235294117648
2025-10-20T14:41:24.740288,12.51908396946565,-1.9770992366412214,-1.2900763358778626,-0.40222587890625,-2.2170307373046874,8.583212951660157,28.76529411764706
2025-10-20T14:41:24.762647,18.244274809160306,-3.114503816793893,-3.900763358778626,-0.5243301635742187,-1.6831237670898436,9.5384994140625,28.81235294117647
2025-10-20T14:41:24.785325,18.916030534351144,-3.053435114503817,-2.2061068702290076,-0.040701428222656245,-1.5251064575195312,9.651026892089844,28.81235294117647
2025-10-20T14:41:24.802283,21.49618320610687,-1.7251908396946565,-1.717557251908397,-0.3136404174804687,-3.0310593017578125,7.673416320800781,28.76529411764706
2025-10-20T14:41:24.825157,25.87786259541985,-1.5801526717557253,-1.5038167938931297,0.2059013427734375,-0.8834604125976562,10.120290417480469,28.76529411764706
2025-10-20T14:41:24.847829,19.908396946564885,-0.3816793893129771,-1.0305343511450382,0.6607996582031249,-0.19153613281249998,10.714052429199219,28.81235294117647
2025-10-20T14:41:24.864898,14.98473282442748,0.6870229007633588,1.8854961832061068,-0.41419688720703124,-1.189918225097656,8.705317236328124,28.76529411764706
2025-10-20T14:41:24.887473,10.694656488549619,1.8549618320610688,0.7633587786259542,0.13407529296874998,-1.2114660400390624,9.172186560058593,28.906470588235294
2025-10-20T14:41:24.910845,2.1526717557251906,2.6030534351145036,1.8625954198473282,0.16519991455078123,-1.1156979736328125,8.789114294433594,28.76529411764706
2025-10-20T14:41:24.927761,-5.076335877862595,0.45038167938931295,3.877862595419847,0.3280056274414062,-0.277727392578125,10.345345373535155,28.81235294117647
2025-10-20T14:41:24.949115,-13.549618320610687,3.6946564885496183,2.8473282442748094,0.22266075439453123,-1.235408056640625,9.7683427734375,28.671176470588236
2025-10-20T14:41:24.972535,-20.427480916030536,2.2595419847328246,2.8396946564885495,0.023942016601562498,-0.7398083129882812,9.777919580078125,28.76529411764706
2025-10-20T14:41:24.989899,-26.16793893129771,2.7938931297709924,3.4885496183206106,0.0718260498046875,-1.0582371337890624,9.181763366699219,28.859411764705882
2025-10-20T14:41:25.010437,-30.12213740458015,4.358778625954199,3.5114503816793894,-0.4333505004882812,-1.6400281372070311,9.193734375,28.81235294117647
2025-10-20T14:41:25.033301,-30.87786259541985,1.3435114503816794,3.114503816793893,-0.031124621582031248,-1.4867992309570313,9.042899670410156,28.76529411764706
2025-10-20T14:41:25.051086,-29.374045801526716,3.4427480916030535,2.404580152671756,0.040701428222656245,-1.85790048828125,8.911218579101561,28.76529411764706
2025-10-20T14:41:25.071327,-27.572519083969464,5.709923664122138,1.9083969465648856,-0.016759411621093748,-1.848323681640625,8.738836059570312,28.76529411764706
2025-10-20T14:41:25.094191,-26.099236641221374,2.6793893129770994,1.1297709923664123,-0.1388636962890625,-1.5753846923828123,8.705317236328124,28.81235294117647
2025-10-20T14:41:25.113288,-23.0,3.4198473282442747,0.6259541984732825,0.00239420166015625,-1.9129671264648436,8.465897070312499,28.76529411764706
2025-10-20T14:41:25.132063,-19.47328244274809,1.786259541984733,-0.31297709923664124,-0.0047884033203125,-2.1619640991210938,8.492233288574218,28.76529411764706
2025-10-20T14:41:25.154763,-17.3206106870229,1.5190839694656488,-1.1984732824427482,-0.1197100830078125,-1.9823989746093749,8.374917407226562,28.76529411764706
2025-10-20T14:41:25.175210,-11.183206106870228,-0.2366412213740458,-1.1450381679389312,-0.23702596435546874,-2.722207287597656,8.106766821289062,28.718235294117648
2025-10-20T14:41:25.192681,-9.129770992366412,0.6412213740458015,-3.877862595419847,0.32561142578124996,-2.2577321655273437,8.267178332519531,28.718235294117648
2025-10-20T14:41:25.215071,-7.32824427480916,1.7633587786259541,-2.236641221374046,-0.11013327636718749,-1.9943699829101562,8.652644799804687,28.671176470588236
2025-10-20T14:41:25.236372,-2.3740458015267176,-0.29770992366412213,-2.9236641221374047,-0.22266075439453123,-2.4899697265625,8.382100012207031,28.76529411764706
2025-10-20T14:41:25.253288,-1.4351145038167938,-1.0076335877862594,-3.351145038167939,-0.143652099609375,-1.659181750488281,8.8489693359375,28.76529411764706
2025-10-20T14:41:25.275807,-1.381679389312977,-1.16793893129771,-3.6030534351145036,-0.1149216796875,-1.85790048828125,9.267954626464844,28.859411764705882
2025-10-20T14:41:25.297900,0.3053435114503817,-1.702290076335878,-4.320610687022901,-0.15322890625,-2.3367408203125,8.971073620605468,28.718235294117648
2025-10-20T14:41:25.314923,-2.618320610687023,-0.5648854961832062,-4.480916030534351,-0.0047884033203125,-1.5418658691406248,8.985438830566405,28.81235294117647
2025-10-20T14:41:25.336788,-2.572519083969466,-1.9236641221374047,-4.709923664122138,-0.09816226806640624,-2.250549560546875,8.813056311035156,28.859411764705882
2025-10-20T14:41:25.359712,-3.5877862595419847,0.46564885496183206,-5.068702290076335,-0.02633621826171875,-1.4915876342773438,8.999804040527343,28.859411764705882
2025-10-20T14:41:25.376622,-3.0,0.7251908396946565,-5.404580152671755,-0.27293898925781246,-1.8602946899414061,9.81862100830078,28.718235294117648
2025-10-20T14:41:25.398094,-3.312977099236641,0.6259541984732825,-5.687022900763359,-0.13646949462890623,-1.5825672973632812,9.327809667968749,28.81235294117647
2025-10-20T14:41:25.421239,-5.7251908396946565,-1.8015267175572518,-5.458015267175573,-0.36391865234375,-2.375048046875,9.0021982421875,28.81235294117647
2025-10-20T14:41:25.438116,-2.564885496183206,1.1908396946564885,-5.755725190839694,-0.023942016601562498,-2.4779987182617185,8.86812294921875,28.718235294117648
2025-10-20T14:41:25.458796,-0.08396946564885496,-2.381679389312977,-5.519083969465649,-0.0430956298828125,-2.0973206542968748,9.651026892089844,28.718235294117648
2025-10-20T14:41:25.481803,-5.809160305343512,0.1984732824427481,-4.442748091603053,-0.02633621826171875,-3.162740393066406,8.264784130859374,28.906470588235294
2025-10-20T14:41:25.499747,0.3969465648854962,1.9465648854961832,-4.66412213740458,0.1292868896484375,-2.3726538452148436,8.858546142578124,28.81235294117647
2025-10-20T14:41:25.519662,3.6412213740458017,-0.7557251908396947,-4.137404580152672,0.14604630126953125,-2.43250888671875,9.598354455566406,28.859411764705882
2025-10-20T14:41:25.542424,2.6717557251908395,2.3587786259541983,-3.2900763358778624,-0.40222587890625,-3.1268273681640624,7.994239343261718,28.671176470588236
2025-10-20T14:41:25.561499,8.969465648854962,0.42748091603053434,-3.2061068702290076,0.05027823486328125,-2.858676782226562,8.755595471191405,28.81235294117647
2025-10-20T14:41:25.580511,14.427480916030534,-0.40458015267175573,-2.572519083969466,-0.2705447875976562,-3.0909143432617188,9.239224206542968,28.81235294117647
2025-10-20T14:41:25.602970,19.328244274809162,0.2748091603053435,-2.3740458015267176,-0.7685387329101562,-3.277662072753906,8.350975390624999,28.718235294117648
2025-10-20T14:41:25.622453,28.015267175572518,-1.549618320610687,-2.3053435114503817,0.143652099609375,-2.770091320800781,8.664615808105468,28.859411764705882
2025-10-20T14:41:25.640540,34.045801526717554,-2.312977099236641,-1.9465648854961832,-0.15322890625,-2.5474305664062498,9.124302526855468,28.81235294117647
2025-10-20T14:41:25.662744,36.847328244274806,-0.5343511450381679,-1.4351145038167938,0.2154781494140625,-2.2553379638671873,9.217676391601563,28.81235294117647
2025-10-20T14:41:25.683539,39.961832061068705,-4.564885496183206,-1.0076335877862594,0.2753331909179687,-1.4006079711914061,9.97184991455078,28.76529411764706
2025-10-20T14:41:25.700463,38.47328244274809,1.2290076335877862,-0.1984732824427481,-0.47884033203125,-2.729389892578125,8.499415893554687,28.859411764705882
2025-10-20T14:41:25.722390,31.83206106870229,-2.8091603053435112,0.6259541984732825,0.1580173095703125,-1.39821376953125,9.713276135253906,28.76529411764706
2025-10-20T14:41:25.744053,30.53435114503817,1.183206106870229,0.7099236641221374,0.2442085693359375,-0.45489831542968745,9.318232861328125,28.81235294117647
2025-10-20T14:41:25.760954,21.938931297709924,-2.717557251908397,1.4809160305343512,0.35673604736328124,-0.6967126831054687,10.70686982421875,28.718235294117648
2025-10-20T14:41:25.783176,15.992366412213741,1.702290076335878,2.312977099236641,0.22505495605468748,-0.8978256225585937,10.120290417480469,28.81235294117647
2025-10-20T14:41:25.805822,5.893129770992366,1.2061068702290076,2.8244274809160306,0.3184288208007812,-0.9935936889648437,9.753977563476562,28.671176470588236
2025-10-20T14:41:25.822698,-2.954198473282443,0.26717557251908397,3.435114503816794,-0.062249243164062495,-1.235408056640625,9.919177478027343,28.906470588235294
2025-10-20T14:41:25.844841,-8.793893129770993,3.7404580152671754,3.4656488549618323,-0.4572925170898437,-1.1731588134765625,9.686939916992188,28.76529411764706
2025-10-20T14:41:25.868038,-11.01526717557252,0.37404580152671757,3.1603053435114505,-0.814028564453125,-1.7238251953125,8.94473740234375,28.76529411764706
2025-10-20T14:41:25.884920,-10.870229007633588,2.4427480916030535,2.4427480916030535,-1.0558429321289062,-1.4053963745117186,8.810662109374999,28.81235294117647
2025-10-20T14:41:25.906154,-10.702290076335878,1.7633587786259541,1.7328244274809161,-0.2705447875976562,-1.5753846923828123,8.449137658691406,28.81235294117647
2025-10-20T14:41:25.929092,-10.19083969465649,-1.1068702290076335,0.8015267175572519,0.5770026000976562,-1.2737152832031249,8.757989672851561,28.81235294117647
2025-10-20T14:41:25.946410,-7.419847328244275,0.3435114503816794,-0.24427480916030533,0.07422025146484375,-1.5729904907226562,9.344569079589844,28.81235294117647
2025-10-20T14:41:25.966470,-7.129770992366412,-0.6641221374045801,-1.1755725190839694,-0.19153613281249998,-1.0199299072265624,8.846575134277343,28.81235294117647
2025-10-20T14:41:25.988929,-4.290076335877862,-1.7786259541984732,-2.427480916030534,-0.047884033203124995,-0.6081272216796875,9.303867651367186,28.81235294117647
2025-10-20T14:41:26.007104,-7.885496183206107,-1.3206106870229009,-2.9770992366412212,-0.229843359375,-0.5243301635742187,9.02135185546875,28.81235294117647
2025-10-20T14:41:26.026547,-9.709923664122137,-3.885496183206107,-3.4656488549618323,0.258573779296875,-0.5195417602539062,9.476250170898437,28.76529411764706
2025-10-20T14:41:26.049137,-14.19083969465649,-0.12213740458015267,-3.404580152671756,0.08140285644531249,-0.5985504150390625,9.425971936035156,28.81235294117647
2025-10-20T14:41:26.068159,-18.793893129770993,-0.9465648854961832,-3.122137404580153,0.15562310791015624,-0.9097966308593749,9.342174877929686,28.81235294117647
2025-10-20T14:41:26.086787,-22.65648854961832,-1.366412213740458,-2.763358778625954,0.4285620971679687,-1.2808978881835937,9.038111267089842,28.859411764705882
2025-10-20T14:41:26.109024,-22.717557251908396,-2.1755725190839694,-2.099236641221374,0.373495458984375,-1.1540052001953125,9.373299499511718,28.76529411764706
2025-10-20T14:41:26.129318,-21.50381679389313,-2.4580152671755724,-1.1068702290076335,0.51714755859375,-1.22583125,9.390058911132812,28.76529411764706
2025-10-20T14:41:26.146440,-22.061068702290076,-1.4427480916030535,0.33587786259541985,0.3136404174804687,-1.3096283081054687,8.992621435546875,28.718235294117648
2025-10-20T14:41:26.168265,-21.236641221374047,-0.10687022900763359,1.465648854961832,0.3112462158203125,-1.8459294799804686,8.470685473632813,28.859411764705882
2025-10-20T14:41:26.189840,-16.862595419847327,1.251908396946565,2.50381679389313,0.07900865478515624,-2.1643583007812497,8.786720092773438,28.81235294117647
2025-10-20T14:41:26.207153,-12.580152671755725,2.4580152671755724,3.595419847328244,-0.00239420166015625,-2.224213342285156,8.865728747558594,28.859411764705882
2025-10-20T14:41:26.229458,-10.282442748091603,3.900763358778626,4.809160305343512,0.076614453125,-2.0661960327148434,8.91840118408203,28.718235294117648
2025-10-20T14:41:26.252740,-5.587786259541985,1.3206106870229009,5.885496183206107,0.181959326171875,-1.7956512451171873,8.418013037109375,28.76529411764706
2025-10-20T14:41:26.269676,-2.5877862595419847,0.7862595419847328,6.99236641221374,-0.18914193115234373,-1.4221557861328125,8.748412866210938,28.906470588235294
2025-10-20T14:41:26.290818,0.7633587786259542,-1.6641221374045803,7.572519083969466,-0.011971008300781249,-1.1372457885742187,9.1554271484375,28.859411764705882
2025-10-20T14:41:26.313873,2.213740458015267,-1.2595419847328244,9.732824427480915,-0.2609679809570312,-1.4939818359375,9.011775048828124,28.81235294117647
2025-10-20T14:41:26.331691,6.564885496183206,-1.6793893129770991,7.679389312977099,-0.27293898925781246,-1.898601916503906,8.358157995605469,28.81235294117647
2025-10-20T14:41:26.351553,8.938931297709924,-1.8091603053435115,6.893129770992366,-0.2059013427734375,-0.7541735229492187,9.375693701171874,28.76529411764706
2025-10-20T14:41:26.374191,11.229007633587786,-2.5572519083969465,6.358778625954199,-0.3184288208007812,-1.7669208251953124,8.920795385742187,28.859411764705882
2025-10-20T14:41:26.393248,15.045801526717558,-2.2213740458015265,5.0534351145038165,-0.21068974609375,-2.133233679199219,7.9655089233398435,28.859411764705882
2025-10-20T14:41:26.411733,20.587786259541986,-5.793893129770993,3.1374045801526718,0.0,-1.2832920898437499,9.394847314453125,28.76529411764706
2025-10-20T14:41:26.433995,21.87786259541985,-2.8244274809160306,1.7251908396946565,-0.6057330200195312,-1.2713210815429687,9.162609753417968,28.76529411764706
2025-10-20T14:41:26.454328,31.236641221374047,-2.885496183206107,1.8854961832061068,-0.9409212524414062,-2.2840683837890623,8.418013037109375,28.718235294117648
2025-10-20T14:41:26.471490,36.908396946564885,-5.778625954198473,-1.6030534351145038,-0.06943184814453125,-1.7190367919921874,8.597578161621094,28.859411764705882
2025-10-20T14:41:26.493304,40.64885496183206,-5.7251908396946565,-2.0916030534351147,0.08858546142578125,-1.5179238525390624,9.09796630859375,28.81235294117647
2025-10-20T14:41:26.514950,43.969465648854964,-4.435114503816794,-2.83206106870229,-0.12210428466796874,-0.9528922607421875,9.481038574218749,28.859411764705882
2025-10-20T14:41:26.531956,45.80152671755725,-5.1603053435114505,-2.9389312977099236,0.13646949462890623,-1.0989385620117187,9.275137231445312,28.859411764705882
2025-10-20T14:41:26.553974,46.49618320610687,-5.786259541984733,-3.618320610687023,0.6727706665039062,-0.33039982910156246,9.567229833984374,28.671176470588236
2025-10-20T14:41:26.576869,45.29770992366412,-6.267175572519084,-3.9160305343511452,0.8212111694335937,-0.15322890625,9.943119494628906,28.718235294117648
2025-10-20T14:41:26.593739,40.69465648854962,-4.419847328244275,-3.7938931297709924,0.6344634399414062,-0.0718260498046875,10.103531005859374,28.76529411764706
2025-10-20T14:41:26.615882,34.603053435114504,-4.297709923664122,-3.2748091603053435,0.5195417602539062,0.17238251953125,9.935936889648437,28.718235294117648
2025-10-20T14:41:26.639292,27.091603053435115,-2.5267175572519083,-2.9083969465648853,0.612915625,0.0718260498046875,10.036493359375,28.81235294117647
2025-10-20T14:41:26.656225,16.419847328244273,-3.7938931297709924,-2.6793893129770994,0.43574470214843747,-0.0430956298828125,10.263942517089843,28.76529411764706
2025-10-20T14:41:26.676843,8.816793893129772,-0.42748091603053434,-2.4580152671755724,0.18435352783203124,-0.2825157958984375,9.9981861328125,28.718235294117648
2025-10-20T14:41:26.699694,2.0,1.2213740458015268,-2.16793893129771,-0.16519991455078123,0.17956512451171874,9.847351428222655,28.859411764705882
2025-10-20T14:41:26.717891,-5.061068702290076,1.3893129770992367,-2.572519083969466,-0.5506663818359374,0.11013327636718749,9.835380419921874,28.859411764705882
2025-10-20T14:41:26.737280,-11.48091603053435,3.0763358778625953,-2.633587786259542,-0.35673604736328124,-0.08858546142578125,9.991003527832031,28.81235294117647
2025-10-20T14:41:26.760549,-19.427480916030536,4.572519083969466,-2.4198473282442747,-0.2346317626953125,0.29927520751953124,9.749189160156249,28.81235294117647
2025-10-20T14:41:26.779618,-27.82442748091603,4.427480916030534,-3.9083969465648853,-0.2609679809570312,0.22505495605468748,9.935936889648437,28.76529411764706
2025-10-20T14:41:26.798135,-34.786259541984734,5.152671755725191,-1.8854961832061068,0.1149216796875,0.06943184814453125,9.91438907470703,28.76529411764706
2025-10-20T14:41:26.820493,-40.97709923664122,5.488549618320611,-1.3206106870229009,0.13646949462890623,-0.34715924072265625,9.935936889648437,28.859411764705882
2025-10-20T14:41:26.840426,-43.64885496183206,5.717557251908397,-1.213740458015267,0.1388636962890625,-0.7062894897460937,9.504980590820312,28.859411764705882
2025-10-20T14:41:26.858014,-46.69465648854962,0.7022900763358778,-1.4809160305343512,0.21308394775390624,-0.6584054565429687,9.303867651367186,28.76529411764706
2025-10-20T14:41:26.880193,-46.80152671755725,3.3206106870229006,-1.5648854961832062,0.5410895751953124,-0.7062894897460937,9.670180505371093,28.859411764705882
2025-10-20T14:41:26.901001,-42.732824427480914,1.5725190839694656,-1.3435114503816794,0.5363011718749999,-1.1276689819335937,9.241618408203124,28.718235294117648
2025-10-20T14:41:26.918043,-37.6412213740458,0.33587786259541985,-1.4961832061068703,0.45010991210937495,-1.1228805786132812,8.846575134277343,28.906470588235294
2025-10-20T14:41:26.940116,-31.64885496183206,2.5114503816793894,-1.8396946564885497,0.031124621582031248,-1.5849614990234373,8.334215979003906,28.76529411764706
2025-10-20T14:41:26.962219,-22.770992366412212,2.5267175572519083,-2.0,0.13407529296874998,-1.8195932617187498,8.757989672851561,28.81235294117647
2025-10-20T14:41:26.979110,-14.19083969465649,2.931297709923664,-1.984732824427481,-0.19871873779296872,-1.6448165405273436,8.863334545898438,28.76529411764706
2025-10-20T14:41:27.001081,-6.748091603053435,2.6717557251908395,-2.1908396946564888,-0.23223756103515625,-1.4437036010742186,8.640673791503906,28.859411764705882
2025-10-20T14:41:27.024079,1.4351145038167938,1.7938931297709924,-1.6641221374045803,-0.07422025146484375,-1.8171990600585937,8.645462194824217,28.76529411764706
2025-10-20T14:41:27.041155,9.534351145038167,1.3206106870229009,-1.297709923664122,0.00718260498046875,-1.3431471313476562,8.796296899414061,28.76529411764706
2025-10-20T14:41:27.063263,14.450381679389313,0.816793893129771,-0.7862595419847328,0.3232172241210937,-0.9433154541015625,8.544905725097657,28.906470588235294
2025-10-20T14:41:27.086549,16.366412213740457,1.7938931297709924,-1.7938931297709924,1.7214309936523438,-0.18435352783203124,8.319850769042969,28.859411764705882
2025-10-20T14:41:27.103638,18.49618320610687,-2.5343511450381677,0.15267175572519084,0.16519991455078123,-0.2442085693359375,9.04050546875,28.76529411764706
2025-10-20T14:41:27.124684,19.84732824427481,-4.0,0.5648854961832062,0.8762778076171874,-0.1867477294921875,9.981426721191406,28.859411764705882
2025-10-20T14:41:27.147760,16.00763358778626,-2.3282442748091605,0.7557251908396947,1.446097802734375,-0.0047884033203125,9.873687646484374,28.859411764705882
2025-10-20T14:41:27.164665,10.282442748091603,-3.763358778625954,1.549618320610687,-0.35673604736328124,-0.7015010864257812,8.595183959960938,28.76529411764706
2025-10-20T14:41:27.185536,3.9389312977099236,-0.40458015267175573,2.7786259541984735,0.239420166015625,-1.1923124267578125,9.7683427734375,28.859411764705882
2025-10-20T14:41:27.209359,0.2748091603053435,-1.2595419847328244,3.198473282442748,0.30885201416015623,-0.6919242797851562,9.212887988281249,28.81235294117647
2025-10-20T14:41:27.226710,-5.022900763358779,0.4961832061068702,3.7099236641221376,0.24181436767578124,-0.6631938598632812,9.593566052246093,28.81235294117647
2025-10-20T14:41:27.247388,-3.9236641221374047,0.6564885496183206,3.8625954198473282,0.316034619140625,-0.47884033203125,9.22485899658203,28.81235294117647
2025-10-20T14:41:27.270668,-5.412213740458015,0.4732824427480916,5.854961832061068,0.6057330200195312,-0.9217676391601562,9.200916979980468,28.81235294117647
2025-10-20T14:41:27.288063,-2.015267175572519,-0.48854961832061067,3.0076335877862594,-0.05027823486328125,-1.1156979736328125,9.038111267089842,28.76529411764706
2025-10-20T14:41:27.308958,1.251908396946565,-1.0,2.1603053435114505,0.0047884033203125,-1.5610194824218748,8.580818749999999,28.906470588235294
2025-10-20T14:41:27.331913,5.870229007633588,-1.1755725190839694,1.3511450381679388,0.33518823242187495,-1.5035586425781249,8.468291271972657,28.81235294117647
2025-10-20T14:41:27.349252,15.16793893129771,-3.0,0.09923664122137404,0.33039982910156246,-1.5035586425781249,8.511386901855468,28.859411764705882
2025-10-20T14:41:27.370673,22.16030534351145,-3.6259541984732824,-0.9083969465648855,0.24899697265624998,-1.8100164550781248,8.698134631347656,28.81235294117647
2025-10-20T14:41:27.393728,30.519083969465647,-3.549618320610687,-2.122137404580153,0.16998831787109375,-1.2785036865234374,8.590395556640624,28.859411764705882
2025-10-20T14:41:27.411685,39.61832061068702,-5.351145038167939,-3.3206106870229006,0.1197100830078125,-1.177947216796875,8.796296899414061,28.906470588235294
2025-10-20T14:41:27.434986,46.18320610687023,-5.038167938931298,-4.175572519083969,-0.0047884033203125,-0.8020575561523438,8.939948999023438,28.859411764705882
2025-10-20T14:41:27.458267,53.534351145038165,-6.580152671755725,-4.9541984732824424,-0.076614453125,-0.6416460449218749,9.227253198242186,28.81235294117647
2025-10-20T14:41:27.475438,57.603053435114504,-7.061068702290076,-5.541984732824427,0.4381389038085937,-0.1292868896484375,9.069235888671875,28.859411764705882
2025-10-20T14:41:27.497205,60.19083969465649,-6.534351145038168,-6.091603053435114,0.33758243408203126,0.6081272216796875,9.5384994140625,28.953529411764706
2025-10-20T14:41:27.520280,55.57251908396947,-5.2748091603053435,-6.0458015267175576,0.7206546997070312,0.9265560424804687,9.600748657226562,28.81235294117647
2025-10-20T14:41:27.537666,46.656488549618324,-5.862595419847328,-5.595419847328245,0.7924807495117187,1.4030021728515625,10.036493359375,28.859411764705882
2025-10-20T14:41:27.558269,34.94656488549618,-1.83206106870229,-5.572519083969466,0.5817910034179687,1.3431471313476562,10.426748229980468,28.81235294117647
2025-10-20T14:41:27.581141,18.259541984732824,-0.5419847328244275,-5.106870229007634,0.3447650390625,1.7812860351562498,10.297461340332031,28.859411764705882
2025-10-20T14:41:27.598904,2.404580152671756,0.648854961832061,-4.8320610687022905,0.258573779296875,1.235408056640625,10.429142431640624,28.76529411764706
2025-10-20T14:41:27.619103,-13.259541984732824,3.1603053435114505,-4.778625954198473,1.0558429321289062,1.5682020874023437,10.24718310546875,28.859411764705882
2025-10-20T14:41:27.641943,-28.114503816793892,2.4427480916030535,-3.267175572519084,0.1292868896484375,2.04943662109375,10.647014782714843,28.859411764705882
2025-10-20T14:41:27.660208,-44.47328244274809,8.595419847328245,-2.33587786259542,0.4429273071289062,0.7110778930664062,9.526528405761718,28.906470588235294
2025-10-20T14:41:27.679984,-52.63358778625954,5.396946564885496,-2.0839694656488548,0.2537853759765625,1.8004396484374998,9.885658654785155,28.906470588235294
2025-10-20T14:41:27.702529,-61.0,9.427480916030534,-1.2061068702290076,0.19393033447265623,1.2928688964843749,10.022128149414062,28.76529411764706
2025-10-20T14:41:27.721208,-65.80152671755725,8.748091603053435,-0.9465648854961832,0.01915361328125,0.6440402465820312,9.753977563476562,28.76529411764706
2025-10-20T14:41:27.740869,-66.61068702290076,11.534351145038167,-0.5038167938931297,0.09337386474609374,0.5027823486328125,9.471461767578125,28.76529411764706
2025-10-20T14:41:27.763812,-65.70229007633588,9.702290076335878,1.8778625954198473,0.26336218261718747,0.181959326171875,9.181763366699219,28.76529411764706
2025-10-20T14:41:27.782944,-60.30534351145038,7.709923664122138,-0.06870229007633588,0.3327940307617187,-0.48123453369140623,9.018957653808593,28.81235294117647
2025-10-20T14:41:27.802051,-56.19083969465649,6.404580152671755,0.5877862595419847,0.5770026000976562,-0.4836287353515625,9.265560424804686,28.76529411764706
2025-10-20T14:41:27.824846,-51.93129770992366,6.4961832061068705,0.9618320610687023,0.5291185668945312,-0.7517793212890624,8.990227233886719,28.859411764705882
2025-10-20T14:41:27.844863,-47.43511450381679,6.305343511450381,1.2442748091603053,0.3902548706054687,-1.2138602416992186,9.081206896972656,28.81235294117647
2025-10-20T14:41:27.863601,-40.343511450381676,4.656488549618321,1.3893129770992367,0.70868369140625,-1.5586252807617187,8.91840118408203,28.76529411764706
2025-10-20T14:41:27.885400,-34.69465648854962,4.473282442748092,1.1603053435114503,0.13407529296874998,-1.5011644409179687,8.56166513671875,28.81235294117647
2025-10-20T14:41:27.906192,-25.076335877862597,3.5572519083969465,1.1984732824427482,-0.05027823486328125,-1.927332336425781,9.121908325195312,28.81235294117647
2025-10-20T14:41:27.923194,-18.778625954198475,4.404580152671755,0.9236641221374046,-0.16519991455078123,-1.5969325073242187,8.44674345703125,28.718235294117648
2025-10-20T14:41:27.945639,-12.053435114503817,3.1068702290076335,0.7786259541984732,0.076614453125,-1.9632453613281249,8.777143286132812,28.81235294117647
2025-10-20T14:41:27.968259,-4.1679389312977095,0.9923664122137404,0.6335877862595419,-0.11252747802734374,-1.419761584472656,8.664615808105468,28.76529411764706
2025-10-20T14:41:27.985201,3.312977099236641,-0.5114503816793893,0.48091603053435117,-0.22266075439453123,-1.5514426757812498,8.367734802246094,28.76529411764706
2025-10-20T14:41:28.007279,9.961832061068701,-3.786259541984733,0.35877862595419846,-0.27293898925781246,-1.3575123413085937,8.657433203124999,28.76529411764706
2025-10-20T14:41:28.030633,16.900763358778626,-3.3893129770992365,0.1984732824427481,-0.0047884033203125,-1.8842367065429686,8.820238916015624,28.76529411764706
2025-10-20T14:41:28.047942,20.129770992366414,-4.465648854961832,-0.20610687022900764,0.22026655273437498,-0.5985504150390625,8.805873706054687,28.76529411764706
2025-10-20T14:41:28.070167,26.709923664122137,-6.595419847328245,0.366412213740458,0.5027823486328125,-0.5291185668945312,9.964667309570311,28.859411764705882
2025-10-20T14:41:28.093818,29.33587786259542,-4.9541984732824424,-0.8396946564885496,-0.9265560424804687,-1.714248388671875,9.375693701171874,28.81235294117647
2025-10-20T14:41:28.110748,19.564885496183205,-5.572519083969466,-0.15267175572519084,-0.25139117431640623,-1.5322890624999999,8.008604553222655,28.906470588235294
2025-10-20T14:41:28.132646,26.374045801526716,-4.6106870229007635,0.183206106870229,-0.06703764648437499,-0.7278373046875,9.7683427734375,28.859411764705882
2025-10-20T14:41:28.156186,27.748091603053435,-8.106870229007633,-0.8015267175572519,0.062249243164062495,-1.2641384765625,9.004592443847656,28.81235294117647
2025-10-20T14:41:28.173583,31.16793893129771,-7.480916030534351,-0.4580152671755725,-0.5626373901367188,-1.6112977172851561,10.01015714111328,28.859411764705882
2025-10-20T14:41:28.194513,30.923664122137403,-5.297709923664122,-1.099236641221374,-0.737414111328125,-1.6807295654296874,8.911218579101561,28.81235294117647
2025-10-20T14:41:28.217379,35.29007633587786,-8.381679389312977,-1.3206106870229009,-0.3016694091796875,-2.1212626708984375,8.508992700195313,28.859411764705882
2025-10-20T14:41:28.235580,42.74809160305343,-8.98473282442748,-1.366412213740458,-0.2705447875976562,-1.467645617675781,9.081206896972656,28.76529411764706
2025-10-20T14:41:28.255263,46.63358778625954,-9.557251908396946,-1.2366412213740459,-0.07422025146484375,-1.0726023437499999,9.009380847167968,28.81235294117647
2025-10-20T14:41:28.277997,48.6412213740458,-8.84732824427481,-1.213740458015267,0.11013327636718749,-0.5578489868164063,8.741230261230468,28.81235294117647
2025-10-20T14:41:28.297219,47.908396946564885,-6.0,-0.9847328244274809,0.05985504150390625,0.05985504150390625,9.739612353515625,28.81235294117647
2025-10-20T14:41:28.316318,45.778625954198475,-7.473282442748092,-0.732824427480916,0.201112939453125,0.8068459594726562,9.610325463867188,28.859411764705882
2025-10-20T14:41:28.338560,41.770992366412216,-5.3893129770992365,-0.8625954198473282,-0.0909796630859375,1.0031704956054688,9.880870251464843,28.953529411764706
2025-10-20T14:41:28.358011,36.9236641221374,-5.748091603053435,-0.9236641221374046,-0.12210428466796874,1.1635820068359375,9.94072529296875,28.81235294117647
2025-10-20T14:41:28.377371,29.435114503816795,-3.648854961832061,-1.1526717557251909,-0.41898529052734373,1.3192051147460937,9.923965881347655,28.859411764705882
2025-10-20T14:41:28.400760,26.916030534351144,-3.1526717557251906,-1.7099236641221374,-0.35673604736328124,1.3934253662109375,9.988609326171874,28.859411764705882
2025-10-20T14:41:28.418725,19.46564885496183,-2.83206106870229,-2.4198473282442747,-0.5578489868164063,1.158793603515625,9.670180505371093,28.81235294117647
2025-10-20T14:41:28.440718,17.076335877862597,-3.6793893129770994,-3.6106870229007635,-0.25139117431640623,1.1947066284179686,9.481038574218749,28.906470588235294
2025-10-20T14:41:28.463414,12.664122137404581,-3.5114503816793894,-4.297709923664122,0.3447650390625,1.216254443359375,9.210493786621093,28.81235294117647
2025-10-20T14:41:28.481150,10.0,-0.6793893129770993,-4.923664122137405,0.3687070556640625,1.0438719238281249,9.153032946777342,28.81235294117647
2025-10-20T14:41:28.500853,8.030534351145038,0.5725190839694656,-5.229007633587786,0.3758896606445312,1.3623007446289062,9.943119494628906,28.76529411764706
2025-10-20T14:41:28.523700,6.465648854961832,0.4732824427480916,-5.305343511450381,0.4908113403320312,1.3024457031249999,9.56962403564453,28.81235294117647
2025-10-20T14:41:28.542743,2.8473282442748094,3.595419847328244,-5.549618320610687,0.7781155395507812,1.5442600708007812,9.746794958496093,28.76529411764706
2025-10-20T14:41:28.561188,-0.732824427480916,3.480916030534351,-5.297709923664122,1.0510545288085937,2.0470424194335934,9.440337145996093,28.81235294117647
2025-10-20T14:41:28.583545,-3.816793893129771,5.305343511450381,-4.862595419847328,0.6512228515624999,1.6448165405273436,8.947131604003905,28.76529411764706
2025-10-20T14:41:28.603510,-7.1603053435114505,5.0534351145038165,-4.816793893129771,0.8355763793945312,1.8339584716796873,9.45470235595703,28.859411764705882
2025-10-20T14:41:28.621212,-11.587786259541986,6.4961832061068705,-3.763358778625954,0.7733271362304687,1.915361328125,9.26316622314453,28.81235294117647
2025-10-20T14:41:28.643180,-18.51145038167939,5.343511450381679,-3.8091603053435112,0.26336218261718747,1.1348515869140625,9.011775048828124,28.81235294117647
2025-10-20T14:41:28.663593,-15.916030534351146,2.8931297709923665,-1.984732824427481,0.7398083129882812,1.4053963745117186,9.306261853027344,28.81235294117647
2025-10-20T14:41:28.681154,-16.114503816793892,3.3206106870229006,-0.9847328244274809,0.9002198242187499,1.369483349609375,9.636661682128906,28.859411764705882
2025-10-20T14:41:28.703322,-18.458015267175572,2.9618320610687023,0.45038167938931295,0.28490999755859375,0.1197100830078125,7.613561279296874,28.76529411764706
2025-10-20T14:41:28.724610,-7.251908396946565,1.366412213740458,0.29770992366412213,0.47165772705078124,0.7230489013671875,9.184157568359375,28.81235294117647
2025-10-20T14:41:28.741701,1.786259541984733,2.8396946564885495,0.4351145038167939,0.055066638183593745,1.5107412475585937,9.119514123535156,28.718235294117648
2025-10-20T14:41:28.763875,2.4427480916030535,-1.7099236641221374,0.9083969465648855,-0.49320554199218747,0.16759411621093748,8.049305981445311,28.81235294117647
2025-10-20T14:41:28.788174,12.374045801526718,2.2213740458015265,1.1450381679389312,0.016759411621093748,-0.1388636962890625,7.9104422851562495,28.859411764705882
2025-10-20T14:41:28.805154,21.763358778625953,-1.8244274809160306,1.534351145038168,0.40222587890625,0.5147533569335937,8.805873706054687,28.859411764705882
2025-10-20T14:41:28.827372,27.572519083969464,-0.6412213740458015,1.8244274809160306,-0.40940848388671874,0.14604630126953125,8.291120349121094,28.718235294117648
2025-10-20T14:41:28.850702,38.63358778625954,-1.2442748091603053,1.9541984732824427,-0.5626373901367188,-0.46686932373046874,7.510610607910156,28.81235294117647
2025-10-20T14:41:28.867602,47.38167938931298,-4.114503816793893,2.099236641221374,0.2561795776367187,-0.258573779296875,8.410830432128906,28.76529411764706
2025-10-20T14:41:28.889419,54.12977099236641,-7.030534351145038,2.6717557251908395,0.24660277099609373,0.13168109130859373,8.786720092773438,28.76529411764706
2025-10-20T14:41:28.912627,56.80916030534351,-6.534351145038168,2.5801526717557253,0.00718260498046875,0.469263525390625,9.179369165039063,28.76529411764706
2025-10-20T14:41:28.929638,55.267175572519086,-7.190839694656488,3.0839694656488548,0.5339069702148437,1.7310078002929687,8.489839086914062,28.859411764705882
2025-10-20T14:41:28.950868,52.14503816793893,-9.816793893129772,3.0839694656488548,0.70868369140625,2.157175695800781,9.390058911132812,28.76529411764706
2025-10-20T14:41:28.973929,48.229007633587784,-7.412213740458015,2.931297709923664,0.296881005859375,2.0063409912109376,8.805873706054687,28.718235294117648
2025-10-20T14:41:28.990818,41.083969465648856,-7.885496183206107,2.4122137404580153,0.105344873046875,2.4971523315429685,9.227253198242186,28.859411764705882
2025-10-20T14:41:29.011726,36.274809160305345,-5.427480916030534,2.0,0.201112939453125,2.9376854370117185,9.200916979980468,28.81235294117647
2025-10-20T14:41:29.034688,29.870229007633586,-5.809160305343512,1.7404580152671756,-0.18914193115234373,2.798821740722656,9.220070593261719,28.906470588235294
2025-10-20T14:41:29.052016,22.236641221374047,-3.4885496183206106,0.816793893129771,0.12210428466796874,3.1411925781249996,9.459490759277344,28.859411764705882
2025-10-20T14:41:29.072466,14.030534351145038,1.748091603053435,0.1984732824427481,0.0430956298828125,3.497928625488281,9.464279162597656,28.81235294117647
2025-10-20T14:41:29.095266,4.763358778625954,-0.3435114503816794,-0.3893129770992366,-0.06464344482421874,3.423708374023437,9.629479077148437,28.76529411764706
2025-10-20T14:41:29.113025,-5.4961832061068705,1.5877862595419847,-0.9618320610687023,0.3902548706054687,4.496310717773437,9.440337145996093,28.76529411764706
2025-10-20T14:41:29.133034,-14.618320610687023,2.3740458015267176,-1.6870229007633588,0.699106884765625,4.690241052246093,9.131485131835937,28.76529411764706
2025-10-20T14:41:29.155805,-24.49618320610687,2.3282442748091605,-2.633587786259542,0.5961562133789062,4.436455676269531,9.732429748535155,28.76529411764706
2025-10-20T14:41:29.173992,-31.83969465648855,5.564885496183206,-3.687022900763359,0.5099649536132812,4.410119458007812,9.414000927734374,28.76529411764706
2025-10-20T14:41:29.193617,-35.29770992366412,2.633587786259542,-5.0458015267175576,0.2537853759765625,3.7134067749023436,9.22485899658203,28.76529411764706
2025-10-20T14:41:29.216000,-35.70992366412214,4.557251908396947,-6.038167938931298,0.4740519287109375,3.8474820678710935,9.337386474609374,28.76529411764706
2025-10-20T14:41:29.234137,-36.17557251908397,3.2595419847328246,-6.877862595419847,0.8020575561523438,3.5482068603515624,9.227253198242186,28.76529411764706
2025-10-20T14:41:29.254158,-36.20610687022901,4.015267175572519,-7.465648854961832,0.63206923828125,2.645592834472656,9.179369165039063,28.81235294117647
2025-10-20T14:41:29.276646,-32.33587786259542,4.519083969465649,-8.076335877862595,0.7206546997070312,2.2768857788085937,9.430760339355468,28.718235294117648
2025-10-20T14:41:29.295639,-25.519083969465647,4.961832061068702,-9.061068702290076,0.5793968017578125,2.0542250244140625,9.334992272949219,28.718235294117648
2025-10-20T14:41:29.314454,-11.32824427480916,4.625954198473282,-9.068702290076336,0.181959326171875,1.2378022583007813,9.018957653808593,28.81235294117647
2025-10-20T14:41:29.340159,-8.50381679389313,6.480916030534351,-10.122137404580153,0.5985504150390625,1.9680337646484374,8.9255837890625,28.81235294117647
2025-10-20T14:41:29.359278,-2.801526717557252,4.770992366412214,-9.854961832061068,0.0383072265625,1.7788918334960937,9.545682019042967,28.859411764705882
2025-10-20T14:41:29.378035,-3.816793893129771,4.984732824427481,-9.633587786259541,0.47884033203125,2.786850732421875,9.066841687011719,28.76529411764706
2025-10-20T14:41:29.400490,0.17557251908396945,3.122137404580153,-8.67175572519084,0.24660277099609373,2.090138049316406,8.734047656249999,28.859411764705882
2025-10-20T14:41:29.420819,-0.6106870229007634,1.8396946564885497,-7.7251908396946565,0.4213794921875,2.3415292236328122,8.99501563720703,28.906470588235294
2025-10-20T14:41:29.438471,-2.4885496183206106,2.4122137404580153,-6.519083969465649,0.45010991210937495,2.4779987182617185,8.904035974121093,28.859411764705882
2025-10-20T14:41:29.460675,-4.465648854961832,0.29770992366412213,-5.374045801526718,0.689530078125,2.2744915771484373,8.987833032226561,28.76529411764706
2025-10-20T14:41:29.481503,-11.442748091603054,1.6488549618320612,-4.030534351145038,-0.6200982299804687,1.675941162109375,9.854534033203125,28.859411764705882
2025-10-20T14:41:29.498375,-14.01526717557252,1.786259541984733,-2.9923664122137406,-0.3495534423828125,1.8004396484374998,9.069235888671875,28.906470588235294
2025-10-20T14:41:29.520613,-11.099236641221374,-0.7022900763358778,-2.717557251908397,0.08858546142578125,1.5011644409179687,8.444349255371094,28.81235294117647
2025-10-20T14:41:29.542803,-8.183206106870228,1.816793893129771,-2.9770992366412212,0.10295067138671875,2.437297290039062,10.228029492187499,28.81235294117647
2025-10-20T14:41:29.559751,-2.7709923664122136,0.8015267175572519,-2.312977099236641,0.3687070556640625,2.133233679199219,8.288726147460936,28.859411764705882
2025-10-20T14:41:29.581915,-2.1526717557251906,0.8549618320610687,-1.7938931297709924,-0.2609679809570312,1.5083470458984374,8.623914379882812,28.76529411764706
2025-10-20T14:41:29.605296,1.7557251908396947,1.1603053435114503,-0.9847328244274809,0.086191259765625,1.5346832641601562,8.504204296874999,28.81235294117647
2025-10-20T14:41:29.622199,4.816793893129771,1.0076335877862594,-0.6335877862595419,0.4955997436523437,1.8219874633789062,8.815450512695312,28.859411764705882
2025-10-20T14:41:29.643586,6.137404580152672,0.4198473282442748,1.9312977099236641,0.44053310546874996,2.205059729003906,9.17458076171875,28.81235294117647
2025-10-20T14:41:29.666916,3.3893129770992365,-0.16793893129770993,0.648854961832061,0.7326257080078125,2.7581203125,9.22485899658203,28.76529411764706
2025-10-20T14:41:29.683825,-1.4122137404580153,-0.7480916030534351,1.6946564885496183,0.3184288208007812,2.9544448486328125,9.351751684570312,28.81235294117647
2025-10-20T14:41:29.704555,-6.259541984732825,-1.0534351145038168,2.2442748091603053,0.1867477294921875,2.5641899780273434,9.124302526855468,28.81235294117647
2025-10-20T14:41:29.727564,-11.618320610687023,-0.366412213740458,2.732824427480916,-0.14125789794921875,2.1691467041015624,9.093177905273437,28.953529411764706
2025-10-20T14:41:29.745346,-15.473282442748092,-1.2900763358778626,2.7251908396946565,-0.40940848388671874,1.8195932617187498,9.521740002441407,28.859411764705882
2025-10-20T14:41:29.765399,-19.0381679389313,0.732824427480916,0.25190839694656486,-0.7852981445312499,0.8643067993164062,8.501810095214843,28.76529411764706
2025-10-20T14:41:29.788168,-17.541984732824428,-2.5114503816793894,-1.984732824427481,0.25139117431640623,1.66636435546875,8.482656481933594,28.76529411764706
2025-10-20T14:41:29.806833,-4.175572519083969,-1.816793893129771,-3.3969465648854964,0.3112462158203125,1.1635820068359375,9.574412438964844,28.859411764705882
2025-10-20T14:41:29.825967,3.5267175572519083,0.9389312977099237,-4.5038167938931295,0.13407529296874998,1.2401964599609374,8.75320126953125,28.81235294117647
2025-10-20T14:41:29.848741,9.473282442748092,-1.2213740458015268,-4.778625954198473,0.26815058593749996,1.0342951171875,8.947131604003905,28.81235294117647
2025-10-20T14:41:29.868330,17.72519083969466,0.40458015267175573,-5.190839694656488,0.8283937744140625,1.2665326782226562,9.445125549316407,28.671176470588236
2025-10-20T14:41:29.886502,22.061068702290076,1.9694656488549618,-5.1679389312977095,0.5003881469726562,1.6400281372070311,9.255983618164063,28.718235294117648
2025-10-20T14:41:29.909468,24.129770992366414,0.916030534351145,-4.564885496183206,0.32082302246093747,2.1930887207031247,9.852139831542969,28.81235294117647
2025-10-20T14:41:29.930453,24.206106870229007,0.33587786259541985,-4.221374045801527,-0.4572925170898437,1.7812860351562498,8.508992700195313,28.859411764705882
2025-10-20T14:41:29.948505,17.358778625954198,-2.0839694656488548,-3.2290076335877864,0.07422025146484375,2.2768857788085937,9.255983618164063,28.81235294117647
2025-10-20T14:41:29.970669,13.236641221374045,-2.6564885496183206,-2.1526717557251906,0.9911994873046874,2.568978381347656,8.939948999023438,28.81235294117647
2025-10-20T14:41:29.993829,3.9389312977099236,-1.1755725190839694,-1.083969465648855,-0.062249243164062495,2.327164013671875,8.604760766601562,28.76529411764706
2025-10-20T14:41:30.010710,-4.763358778625954,-2.450381679389313,0.1450381679389313,0.2657563842773437,2.090138049316406,8.508992700195313,28.81235294117647
2025-10-20T14:41:30.032515,-10.557251908396946,-2.3740458015267176,0.7022900763358778,0.488417138671875,2.3582886352539063,9.45470235595703,28.859411764705882
2025-10-20T14:41:30.055793,-15.50381679389313,-0.6259541984732825,0.6106870229007634,0.201112939453125,2.2553379638671873,9.296685046386719,28.859411764705882
2025-10-20T14:41:30.072663,-18.114503816793892,0.3282442748091603,1.9312977099236641,0.033518823242187495,1.4987702392578124,9.327809667968749,28.718235294117648
2025-10-20T14:41:30.093514,-17.366412213740457,-0.20610687022900764,-0.9694656488549618,0.47884033203125,1.0295067138671874,8.614337573242187,28.76529411764706
2025-10-20T14:41:30.116488,-9.679389312977099,1.0381679389312977,-3.015267175572519,0.6440402465820312,0.7038952880859375,8.415618835449218,28.859411764705882
2025-10-20T14:41:30.134258,-3.2519083969465647,0.20610687022900764,-5.862595419847328,1.0510545288085937,1.0582371337890624,9.157821350097656,28.671176470588236
2025-10-20T14:41:30.154192,-0.5114503816793893,0.6412213740458015,-5.00763358778626,1.2018892333984375,1.1013327636718748,9.131485131835937,28.81235294117647
2025-10-20T14:41:30.176899,2.83206106870229,1.9389312977099236,-5.572519083969466,0.6200982299804687,1.39821376953125,8.935160595703124,28.81235294117647
2025-10-20T14:41:30.195555,3.5419847328244276,1.0687022900763359,-5.67175572519084,0.4213794921875,2.01112939453125,9.370905297851563,28.859411764705882
2025-10-20T14:41:30.214583,1.4885496183206106,1.6946564885496183,-5.068702290076335,0.3232172241210937,2.3319524169921872,8.954314208984375,28.81235294117647
2025-10-20T14:41:30.237101,-2.351145038167939,-1.450381679389313,-4.549618320610687,-0.09816226806640624,2.7365724975585937,9.425971936035156,28.81235294117647
2025-10-20T14:41:30.256701,-12.320610687022901,0.5114503816793893,-2.9236641221374047,-0.0526724365234375,2.1619640991210938,9.296685046386719,28.859411764705882
2025-10-20T14:41:30.275860,-21.80916030534351,0.8320610687022901,-1.7557251908396947,0.373495458984375,2.767697119140625,10.283096130371094,28.906470588235294
2025-10-20T14:41:30.297972,-27.893129770992367,-2.786259541984733,0.1297709923664122,0.19632453613281248,3.0119056884765625,9.765948571777344,28.76529411764706
2025-10-20T14:41:30.319140,-39.55725190839695,3.946564885496183,1.816793893129771,-0.05746083984375,2.195482922363281,9.696516723632811,28.76529411764706
2025-10-20T14:41:30.336076,-43.954198473282446,2.618320610687023,2.3435114503816794,0.055066638183593745,2.1930887207031247,10.046070166015625,28.81235294117647
2025-10-20T14:41:30.358006,-47.41984732824427,2.5343511450381677,3.045801526717557,0.19393033447265623,1.8171990600585937,10.050858569335936,28.76529411764706
2025-10-20T14:41:30.380445,-52.05343511450382,7.740458015267175,3.2290076335877864,-0.08140285644531249,1.8195932617187498,9.411606726074218,28.859411764705882
2025-10-20T14:41:30.397417,-49.152671755725194,5.549618320610687,3.1068702290076335,0.7062894897460937,0.7805097412109374,8.820238916015624,28.76529411764706
2025-10-20T14:41:30.419455,-45.86259541984733,7.473282442748092,2.5572519083969465,-0.033518823242187495,1.0510545288085937,9.04050546875,28.76529411764706
2025-10-20T14:41:30.442561,-37.74045801526717,2.3206106870229006,0.9770992366412213,-0.011971008300781249,0.63206923828125,8.810662109374999,28.81235294117647
2025-10-20T14:41:30.459588,-30.282442748091604,1.9770992366412214,-0.7099236641221374,-0.1292868896484375,1.1109095703125,9.102754711914063,28.81235294117647
2025-10-20T14:41:30.481059,-24.770992366412212,2.6717557251908395,-1.6259541984732824,0.09576806640624999,1.0510545288085937,9.320627062988281,28.81235294117647
2025-10-20T14:41:30.503988,-19.801526717557252,-0.7786259541984732,-2.2748091603053435,-0.0143652099609375,1.2330138549804688,9.464279162597656,28.81235294117647
2025-10-20T14:41:30.520881,-16.908396946564885,-0.3969465648854962,-3.122137404580153,-0.105344873046875,1.3407529296874998,9.519345800781249,28.76529411764706
2025-10-20T14:41:30.541995,-16.18320610687023,-0.9389312977099237,-3.984732824427481,-0.22744915771484372,1.4006079711914061,9.629479077148437,28.81235294117647
2025-10-20T14:41:30.564810,-14.34351145038168,-3.6793893129770994,-4.99236641221374,-0.011971008300781249,1.3646949462890625,9.543287817382812,28.718235294117648
2025-10-20T14:41:30.582128,-11.786259541984732,-1.0916030534351144,-6.213740458015267,-0.22266075439453123,1.1420341918945311,9.143456140136719,28.859411764705882
2025-10-20T14:41:30.602570,-12.549618320610687,-0.6106870229007634,-7.198473282442748,-0.3136404174804687,0.7709329345703124,9.167398156738281,28.906470588235294
2025-10-20T14:41:30.625346,-8.740458015267176,-1.9083969465648856,-7.824427480916031,-0.06943184814453125,0.7015010864257812,9.797073193359374,28.76529411764706
2025-10-20T14:41:30.643527,-3.16793893129771,-0.9083969465648855,-8.83206106870229,-0.258573779296875,-0.25139117431640623,9.200916979980468,28.906470588235294
2025-10-20T14:41:30.662864,-1.9236641221374047,-0.46564885496183206,-8.98473282442748,-0.28730419921875,-0.48123453369140623,9.241618408203124,28.859411764705882
2025-10-20T14:41:30.686390,8.450381679389313,-1.2595419847328244,-8.389312977099237,-0.105344873046875,-1.5418658691406248,8.640673791503906,28.76529411764706
2025-10-20T14:41:30.705421,16.740458015267176,-2.122137404580153,-8.580152671755725,-0.29448680419921874,-0.49799394531249996,8.492233288574218,28.81235294117647
2025-10-20T14:41:30.724176,24.65648854961832,-3.198473282442748,-7.358778625954199,0.20350714111328125,-0.06943184814453125,9.057264880371093,28.859411764705882
2025-10-20T14:41:30.746499,25.595419847328245,-5.244274809160306,-6.3893129770992365,0.5817910034179687,0.24181436767578124,9.176974963378905,28.81235294117647
2025-10-20T14:41:30.765878,26.96946564885496,-4.236641221374046,-5.190839694656488,0.14125789794921875,0.4261678955078125,9.18655177001953,28.76529411764706
2025-10-20T14:41:30.783961,20.358778625954198,-4.702290076335878,-1.9770992366412214,0.062249243164062495,0.5530605834960938,9.801861596679688,28.81235294117647
2025-10-20T14:41:30.805982,13.763358778625955,-2.1297709923664123,-3.2213740458015265,0.1580173095703125,2.1308394775390624,9.208099584960937,28.81235294117647
2025-10-20T14:41:30.826242,2.145038167938931,-0.16793893129770993,-2.16793893129771,0.4836287353515625,2.0254946044921875,9.6151138671875,28.81235294117647
2025-10-20T14:41:30.843543,-13.091603053435115,-0.09923664122137404,-1.6793893129770991,0.7110778930664062,2.626439221191406,10.275913525390624,28.859411764705882
2025-10-20T14:41:30.865607,-27.908396946564885,1.3358778625954197,-1.633587786259542,0.7493851196289062,2.81558115234375,10.474632263183594,28.76529411764706
2025-10-20T14:41:30.886329,-45.10687022900763,3.33587786259542,-0.7862595419847328,0.00718260498046875,2.327164013671875,9.976638317871092,28.859411764705882
2025-10-20T14:41:30.903228,-59.93129770992366,7.488549618320611,-0.8320610687022901,-0.1292868896484375,1.1563994018554686,9.890447058105469,28.81235294117647
2025-10-20T14:41:30.925665,-63.717557251908396,3.2977099236641223,-1.2290076335877862,0.12449848632812499,0.59376201171875,8.767566479492187,28.81235294117647
2025-10-20T14:41:30.947686,-62.50381679389313,5.114503816793893,-1.7709923664122138,-0.1197100830078125,-1.8267758666992187,8.80347950439453,28.81235294117647
2025-10-20T14:41:30.964593,-57.099236641221374,7.114503816793893,-4.221374045801527,-1.0630255371093749,-1.4628572143554686,7.287949853515625,28.859411764705882
2025-10-20T14:41:30.986605,-50.3206106870229,5.961832061068702,-5.755725190839694,-0.4477157104492187,-1.9033903198242186,8.346186987304687,28.81235294117647
2025-10-20T14:41:31.009485,-36.725190839694655,5.473282442748092,-7.122137404580153,-0.7278373046875,-1.6998831787109374,7.400477331542969,28.859411764705882
2025-10-20T14:41:31.026395,-22.30534351145038,2.7786259541984735,-7.404580152671755,-0.4165910888671875,-1.7573440185546874,8.315062365722655,28.906470588235294
2025-10-20T14:41:31.047976,-17.206106870229007,3.2061068702290076,-6.465648854961832,0.32561142578124996,-1.2665326782226562,8.710105639648438,28.76529411764706
2025-10-20T14:41:31.071271,-8.091603053435115,1.3511450381679388,-4.977099236641221,0.2537853759765625,-0.9074024291992187,8.449137658691406,28.859411764705882
2025-10-20T14:41:31.088194,-3.7099236641221376,1.1526717557251909,-3.7709923664122136,0.229843359375,-0.6823474731445313,8.611943371582031,28.859411764705882
2025-10-20T14:41:31.108798,-0.7862595419847328,1.4580152671755726,-3.0381679389312977,-0.0526724365234375,-0.6344634399414062,8.556876733398436,28.81235294117647
2025-10-20T14:41:31.131768,-0.10687022900763359,-0.2824427480916031,-2.3740458015267176,0.46686932373046874,-0.06464344482421874,8.71489404296875,28.906470588235294
2025-10-20T14:41:31.149935,-4.801526717557252,0.9618320610687023,-1.450381679389313,0.9121908325195311,0.36631285400390623,9.476250170898437,28.76529411764706
2025-10-20T14:41:31.169312,-10.946564885496183,0.6564885496183206,-0.9847328244274809,0.5003881469726562,0.5482721801757812,9.53131680908203,28.81235294117647
2025-10-20T14:41:31.191867,-13.778625954198473,0.648854961832061,-0.732824427480916,0.04548983154296875,-0.02633621826171875,9.897629663085937,28.81235294117647
2025-10-20T14:41:31.211311,-21.244274809160306,1.3129770992366412,-2.0229007633587788,0.33518823242187495,0.3854664672851562,9.816226806640625,28.906470588235294
2025-10-20T14:41:31.229282,-20.267175572519083,3.435114503816794,-4.5038167938931295,-0.16998831787109375,-0.08140285644531249,9.991003527832031,28.81235294117647
2025-10-20T14:41:31.251480,-19.03053435114504,1.4427480916030535,-3.9236641221374047,-0.3232172241210937,-1.1156979736328125,9.720458740234374,28.859411764705882
2025-10-20T14:41:31.272234,-20.610687022900763,1.4885496183206106,-6.770992366412214,0.277727392578125,-1.4341267944335936,9.157821350097656,28.81235294117647
2025-10-20T14:41:31.289155,-19.80916030534351,3.0916030534351147,-7.732824427480916,0.009576806640625,-0.8475473876953125,9.370905297851563,28.859411764705882
2025-10-20T14:41:31.311182,-18.16030534351145,3.068702290076336,-8.679389312977099,-0.19871873779296872,-1.0845733520507812,9.064447485351561,28.859411764705882
2025-10-20T14:41:31.333235,-15.145038167938932,2.5572519083969465,-9.694656488549619,-0.26815058593749996,-1.1228805786132812,9.342174877929686,28.718235294117648
2025-10-20T14:41:31.350143,-10.053435114503817,2.717557251908397,-10.17557251908397,0.19153613281249998,-1.5179238525390624,8.908824377441405,28.859411764705882
2025-10-20T14:41:31.372247,-7.259541984732825,2.0916030534351147,-10.290076335877863,-0.10773907470703124,-1.6831237670898436,9.198522778320312,28.859411764705882
2025-10-20T14:41:31.395449,-3.6259541984732824,0.7938931297709924,-10.251908396946565,0.3447650390625,-1.5514426757812498,9.548076220703125,28.81235294117647
2025-10-20T14:41:31.412355,-1.6106870229007633,0.648854961832061,-9.725190839694656,0.16041151123046873,-1.426944189453125,9.792284790039062,28.76529411764706
2025-10-20T14:41:31.433491,1.6564885496183206,-0.6412213740458015,-9.572519083969466,0.5770026000976562,-0.8834604125976562,10.328585961914062,28.81235294117647
2025-10-20T14:41:31.456424,-0.6717557251908397,2.3282442748091605,-8.748091603053435,0.13168109130859373,-1.1348515869140625,9.890447058105469,28.81235294117647
2025-10-20T14:41:31.473875,-2.0763358778625953,2.732824427480916,-7.801526717557252,0.16280571289062498,-1.3575123413085937,9.832986218261718,28.76529411764706
2025-10-20T14:41:31.494072,-6.282442748091603,3.1603053435114505,-7.0534351145038165,0.23702596435546874,-1.0295067138671874,10.005368737792969,28.859411764705882
2025-10-20T14:41:31.516974,-10.564885496183207,4.33587786259542,-6.022900763358779,-0.11252747802734374,-1.0127473022460938,9.730035546875,28.81235294117647
2025-10-20T14:41:31.535587,-13.267175572519085,4.351145038167939,-5.633587786259542,0.40462008056640625,-0.967257470703125,10.034099157714843,28.859411764705882
2025-10-20T14:41:31.554479,-15.16030534351145,4.824427480916031,-5.083969465648855,-0.34715924072265625,-0.833182177734375,9.945513696289062,28.81235294117647
2025-10-20T14:41:31.576865,-18.633587786259543,4.038167938931298,-3.969465648854962,-0.04548983154296875,-0.9265560424804687,9.83777462158203,28.81235294117647
2025-10-20T14:41:31.596742,-20.15267175572519,4.152671755725191,-3.5267175572519083,-0.07422025146484375,-1.3359645263671873,9.670180505371093,28.76529411764706
2025-10-20T14:41:31.614343,-20.282442748091604,3.053435114503817,-3.0610687022900764,-0.03591302490234375,-1.8459294799804686,8.963891015625,28.859411764705882
2025-10-20T14:41:31.636350,-18.015267175572518,4.282442748091603,-3.045801526717557,-0.20829554443359374,-2.262520568847656,8.913612780761719,28.81235294117647
2025-10-20T14:41:31.657541,-15.0,2.946564885496183,-3.6259541984732824,-0.2059013427734375,-1.9393033447265624,9.028534460449219,28.859411764705882
2025-10-20T14:41:31.674580,-12.335877862595419,1.2595419847328244,-4.083969465648855,-0.19153613281249998,-2.042254016113281,8.643067993164061,28.76529411764706
2025-10-20T14:41:31.696867,-9.80916030534351,0.022900763358778626,-4.175572519083969,0.08858546142578125,-1.9608511596679685,8.652644799804687,28.81235294117647
2025-10-20T14:41:31.719341,-6.366412213740458,0.9770992366412213,-3.9770992366412212,0.1005564697265625,-2.104503259277344,8.90643017578125,28.81235294117647
2025-10-20T14:41:31.736302,-3.6717557251908395,0.5572519083969466,-3.9083969465648853,0.1292868896484375,-1.8076222534179687,8.542511523437499,28.859411764705882
2025-10-20T14:41:31.758522,1.5419847328244274,-0.8473282442748091,-3.549618320610687,0.41419688720703124,-1.7980454467773437,8.86094034423828,28.859411764705882
2025-10-20T14:41:31.781898,3.885496183206107,-0.1297709923664122,-3.450381679389313,0.062249243164062495,-1.9704279663085937,8.767566479492187,28.859411764705882
2025-10-20T14:41:31.798862,6.236641221374046,-2.9160305343511452,-3.33587786259542,0.07900865478515624,-2.224213342285156,8.916006982421875,28.718235294117648
2025-10-20T14:41:31.819513,7.412213740458015,-3.6412213740458017,-3.549618320610687,-0.0430956298828125,-1.9536685546875,8.662221606445312,28.859411764705882
2025-10-20T14:41:31.842412,8.229007633587786,-4.763358778625954,-3.3740458015267176,0.29927520751953124,-1.2569558715820313,8.449137658691406,28.859411764705882
2025-10-20T14:41:31.860681,9.50381679389313,-5.717557251908397,-3.3740458015267176,0.10295067138671875,-1.1947066284179686,9.375693701171874,28.859411764705882
2025-10-20T14:41:31.880153,9.335877862595419,-4.99236641221374,-3.83206106870229,0.24660277099609373,0.40940848388671874,10.81460889892578,28.859411764705882
2025-10-20T14:41:31.902733,-0.03816793893129771,-0.44274809160305345,-3.717557251908397,-0.8906430175781249,-1.0319009155273438,8.513781103515624,28.81235294117647
2025-10-20T14:41:31.922382,-4.175572519083969,-0.2900763358778626,-5.8320610687022905,-0.8307879760742187,-1.0869675537109373,8.729259252929687,28.76529411764706
2025-10-20T14:41:31.940566,-4.129770992366412,-1.2671755725190839,-4.587786259541985,-0.2920926025390625,-1.944091748046875,8.40125362548828,28.81235294117647
2025-10-20T14:41:31.962764,-3.6259541984732824,-2.5419847328244276,-5.030534351145038,-0.8547299926757812,-1.889025109863281,8.59278975830078,28.81235294117647
2025-10-20T14:41:31.983516,-2.6717557251908395,-0.1450381679389313,-5.793893129770993,-0.9504980590820312,-1.9009961181640624,8.626308581542968,28.906470588235294
2025-10-20T14:41:32.000432,-0.8854961832061069,-1.450381679389313,-5.580152671755725,-0.6200982299804687,-2.501940734863281,8.686163623046875,28.76529411764706
2025-10-20T14:41:32.022506,0.6412213740458015,-2.366412213740458,-5.343511450381679,0.2705447875976562,-2.04943662109375,8.839392529296875,28.81235294117647
2025-10-20T14:41:32.044528,3.33587786259542,0.09923664122137404,-5.00763358778626,0.0143652099609375,-1.8363526733398436,8.645462194824217,28.859411764705882
2025-10-20T14:41:32.061444,7.763358778625954,0.4351145038167939,-4.175572519083969,0.24899697265624998,-1.9009961181640624,8.506598498535157,28.76529411764706
2025-10-20T14:41:32.083671,11.16793893129771,1.7557251908396947,-3.732824427480916,-0.04548983154296875,-1.7501614135742187,8.681375219726561,28.718235294117648
2025-10-20T14:41:32.106869,12.870229007633588,-0.9541984732824428,-2.7786259541984735,0.07900865478515624,-2.0302830078125,8.564059338378906,28.859411764705882
2025-10-20T14:41:32.123836,12.419847328244275,0.015267175572519083,-2.480916030534351,-0.105344873046875,-1.649604943847656,8.518569506835936,28.859411764705882
2025-10-20T14:41:32.145169,12.282442748091603,1.9312977099236641,-2.435114503816794,0.1149216796875,-0.9241618408203125,9.394847314453125,28.81235294117647
2025-10-20T14:41:32.168595,9.511450381679388,2.2519083969465647,-2.2442748091603053,0.0143652099609375,-1.2880804931640624,9.56962403564453,28.906470588235294
2025-10-20T14:41:32.186362,8.358778625954198,1.4809160305343512,-2.6106870229007635,-0.06464344482421874,-0.6153098266601562,9.488221179199218,28.81235294117647
2025-10-20T14:41:32.206175,4.763358778625954,2.854961832061069,-3.015267175572519,-0.16280571289062498,-0.82360537109375,9.782707983398437,28.81235294117647
2025-10-20T14:41:32.229009,3.4580152671755724,2.4580152671755724,-2.0610687022900764,-0.2442085693359375,-0.9816226806640624,9.284714038085937,28.76529411764706
2025-10-20T14:41:32.248071,2.3969465648854964,2.7251908396946565,-5.0,-0.29927520751953124,-1.1276689819335937,9.368511096191405,28.76529411764706
2025-10-20T14:41:32.266705,3.4656488549618323,1.9694656488549618,-6.00763358778626,-0.15322890625,-1.0390835205078124,9.6917283203125,28.76529411764706
2025-10-20T14:41:32.289190,3.7938931297709924,2.2519083969465647,-6.763358778625954,-0.411802685546875,-1.3096283081054687,9.272743029785156,28.76529411764706
2025-10-20T14:41:32.309594,5.862595419847328,2.366412213740458,-7.541984732824427,-0.430956298828125,-1.0510545288085937,8.916006982421875,28.81235294117647
2025-10-20T14:41:32.326775,10.374045801526718,2.0763358778625953,-8.16793893129771,0.016759411621093748,-1.1348515869140625,9.095572106933593,28.859411764705882
2025-10-20T14:41:32.348844,13.51908396946565,1.0458015267175573,-8.709923664122137,0.15083470458984374,-0.7757213378906249,9.622296472167967,28.81235294117647
2025-10-20T14:41:32.370555,16.083969465648856,-1.4732824427480915,-8.335877862595419,0.4860229370117187,-0.9217676391601562,9.399635717773437,28.906470588235294
2025-10-20T14:41:32.387452,16.53435114503817,-0.29770992366412213,-8.50381679389313,0.24181436767578124,-0.82360537109375,9.816226806640625,28.859411764705882
2025-10-20T14:41:32.411581,18.068702290076335,0.9923664122137404,-8.526717557251908,0.7230489013671875,-1.120486376953125,9.354145886230468,28.81235294117647
2025-10-20T14:41:32.435059,20.198473282442748,-2.5267175572519083,-8.458015267175572,0.4908113403320312,-0.3806780639648437,9.97903251953125,28.76529411764706
2025-10-20T14:41:32.451977,20.14503816793893,-1.0,-8.473282442748092,0.3591302490234375,-0.4525041137695312,9.74200655517578,28.718235294117648
2025-10-20T14:41:32.473638,17.022900763358777,-0.7022900763358778,-8.13740458015267,0.5746083984375,-0.737414111328125,9.279925634765624,28.76529411764706
2025-10-20T14:41:32.496817,14.32824427480916,-1.6946564885496183,-6.778625954198473,0.852335791015625,-0.05985504150390625,10.122684619140625,28.76529411764706
2025-10-20T14:41:32.513685,11.404580152671755,-0.5114503816793893,-5.625954198473282,0.13168109130859373,-0.7422025146484375,9.576806640625,28.859411764705882
2025-10-20T14:41:32.534352,8.641221374045802,-0.366412213740458,-4.9465648854961835,0.2609679809570312,-0.5578489868164063,9.363722692871093,28.76529411764706
2025-10-20T14:41:32.557275,8.045801526717558,-1.8625954198473282,-3.969465648854962,-0.11252747802734374,-0.3016694091796875,9.574412438964844,28.859411764705882
2025-10-20T14:41:32.575033,5.786259541984733,-0.5572519083969466,-3.2519083969465647,-0.15562310791015624,-0.7924807495117187,9.53131680908203,28.859411764705882
2025-10-20T14:41:32.594880,7.358778625954199,-0.6946564885496184,-2.6106870229007635,-0.22744915771484372,-0.5147533569335937,9.641450085449218,28.718235294117648
2025-10-20T14:41:32.617789,7.709923664122138,-1.2900763358778626,-2.2213740458015265,-0.47884033203125,0.24181436767578124,9.504980590820312,28.859411764705882
2025-10-20T14:41:32.636865,9.366412213740459,-2.717557251908397,-1.6717557251908397,-0.699106884765625,-0.354341845703125,8.985438830566405,28.718235294117648
2025-10-20T14:41:32.655546,12.709923664122137,-2.900763358778626,-1.7786259541984732,-0.4860229370117187,-0.3064578125,8.89924757080078,28.859411764705882
2025-10-20T14:41:32.677822,13.67175572519084,-3.282442748091603,-1.6412213740458015,-0.36391865234375,-0.9983820922851562,9.145850341796875,28.906470588235294
2025-10-20T14:41:32.698143,10.954198473282442,-4.427480916030534,-2.0,0.10773907470703124,1.2378022583007813,9.083601098632812,28.81235294117647
2025-10-20T14:41:32.715395,14.396946564885496,-5.694656488549619,-2.33587786259542,0.5793968017578125,0.373495458984375,9.624690673828125,28.81235294117647
2025-10-20T14:41:32.737712,15.32824427480916,-4.2748091603053435,-2.9160305343511452,0.36391865234375,1.3000515014648437,9.5001921875,28.859411764705882
2025-10-20T14:41:32.759725,17.34351145038168,-6.977099236641221,-3.0381679389312977,0.181959326171875,0.63206923828125,9.70369932861328,28.859411764705882
2025-10-20T14:41:32.776682,14.603053435114504,-5.33587786259542,-3.5114503816793894,0.2561795776367187,0.40940848388671874,9.502586389160156,28.76529411764706
2025-10-20T14:41:32.798859,14.038167938931299,-7.702290076335878,-3.8473282442748094,0.6081272216796875,0.9888052856445312,9.33978067626953,28.81235294117647
2025-10-20T14:41:32.822045,12.763358778625955,-5.175572519083969,-4.679389312977099,0.6200982299804687,0.5219359619140624,9.433154541015625,28.81235294117647
2025-10-20T14:41:32.839252,13.053435114503817,-4.236641221374046,-5.450381679389313,0.4572925170898437,1.0702081420898437,9.478644372558593,28.718235294117648
2025-10-20T14:41:32.860186,13.969465648854962,-2.1908396946564888,-6.236641221374046,0.181959326171875,0.46686932373046874,9.299079248046874,28.859411764705882
2025-10-20T14:41:32.882991,14.099236641221374,-3.480916030534351,-7.068702290076335,0.5698199951171875,0.3447650390625,9.593566052246093,28.718235294117648
2025-10-20T14:41:32.900409,15.312977099236642,-2.480916030534351,-7.893129770992366,0.5243301635742187,0.10773907470703124,8.741230261230468,28.76529411764706
2025-10-20T14:41:32.920770,15.595419847328245,-1.1068702290076335,-8.740458015267176,-0.0430956298828125,0.10295067138671875,8.916006982421875,28.81235294117647
2025-10-20T14:41:32.943655,16.908396946564885,-1.0534351145038168,-9.48091603053435,0.24660277099609373,0.2657563842773437,8.920795385742187,28.76529411764706
2025-10-20T14:41:32.961833,19.358778625954198,-0.648854961832061,-10.053435114503817,-0.055066638183593745,0.1484405029296875,9.10993731689453,28.859411764705882
2025-10-20T14:41:32.981534,17.72519083969466,0.2595419847328244,-10.587786259541986,0.05746083984375,0.11013327636718749,8.695740429687499,28.81235294117647
2025-10-20T14:41:33.004026,19.19083969465649,1.8473282442748091,-10.755725190839694,0.047884033203124995,0.04548983154296875,8.858546142578124,28.906470588235294
2025-10-20T14:41:33.023146,19.18320610687023,1.251908396946565,-10.557251908396946,-0.07422025146484375,-0.11252747802734374,9.294290844726563,28.859411764705882
2025-10-20T14:41:33.041820,17.14503816793893,2.6564885496183206,-10.404580152671755,0.031124621582031248,-0.5913678100585937,9.006986645507812,28.76529411764706
2025-10-20T14:41:33.064103,15.427480916030534,0.10687022900763359,-9.763358778625955,-0.239420166015625,-0.3758896606445312,8.667010009765624,28.76529411764706
2025-10-20T14:41:33.083695,13.122137404580153,2.8931297709923665,-7.847328244274809,-0.4070142822265625,0.2920926025390625,9.047688073730468,28.906470588235294
2025-10-20T14:41:33.101821,13.335877862595419,2.6030534351145036,-9.778625954198473,-0.12689268798828124,0.6584054565429687,9.854534033203125,28.76529411764706
2025-10-20T14:41:33.124156,5.221374045801527,4.6183206106870225,-9.488549618320612,0.11013327636718749,1.1875240234375,9.217676391601563,28.81235294117647
2025-10-20T14:41:33.144541,-1.9312977099236641,4.595419847328245,-9.648854961832061,0.4381389038085937,1.6615759521484375,9.351751684570312,28.76529411764706
2025-10-20T14:41:33.161726,-4.473282442748092,6.00763358778626,-9.923664122137405,0.43574470214843747,1.0869675537109373,9.744400756835937,28.81235294117647
2025-10-20T14:41:33.183789,-7.877862595419847,4.404580152671755,-10.435114503816793,0.40462008056640625,1.6615759521484375,9.658209497070311,28.76529411764706
2025-10-20T14:41:33.205608,-10.511450381679388,2.282442748091603,-11.099236641221374,0.32082302246093747,2.231395947265625,9.976638317871092,28.859411764705882
2025-10-20T14:41:33.222489,-14.748091603053435,7.038167938931298,-11.450381679389313,0.8403647827148437,-0.07422025146484375,9.854534033203125,28.81235294117647
2025-10-20T14:41:33.244542,-17.458015267175572,8.748091603053435,-11.114503816793894,0.3447650390625,0.93852705078125,9.203311181640624,28.859411764705882
2025-10-20T14:41:33.267119,-20.50381679389313,6.717557251908397,-11.778625954198473,0.7661445312499999,0.8954314208984374,9.967061511230469,28.859411764705882
2025-10-20T14:41:33.284012,-18.908396946564885,4.030534351145038,-11.633587786259541,0.6153098266601562,1.0558429321289062,9.275137231445312,28.859411764705882
2025-10-20T14:41:33.306250,-21.129770992366414,2.3893129770992365,-11.32824427480916,0.7062894897460937,0.7852981445312499,9.579200842285156,28.81235294117647
2025-10-20T14:41:33.329780,-18.19083969465649,3.2213740458015265,-11.412213740458014,0.4740519287109375,0.6847416748046875,8.82263311767578,28.859411764705882
2025-10-20T14:41:33.346671,-16.267175572519083,0.015267175572519083,-10.98473282442748,0.8499415893554687,0.3806780639648437,9.014169250488282,28.81235294117647
2025-10-20T14:41:33.367415,-14.86259541984733,1.0229007633587786,-10.732824427480915,0.6631938598632812,0.5434837768554687,9.82580361328125,28.906470588235294
2025-10-20T14:41:33.391034,-12.374045801526718,0.9465648854961832,-11.702290076335878,0.43574470214843747,0.4955997436523437,9.437942944335937,28.81235294117647
2025-10-20T14:41:33.409348,-12.396946564885496,-0.7404580152671756,-7.862595419847328,0.36152445068359373,0.411802685546875,9.840168823242188,28.81235294117647
2025-10-20T14:41:33.429349,-11.572519083969466,0.3282442748091603,-6.190839694656488,0.6105214233398437,0.22026655273437498,9.6917283203125,28.859411764705882
2025-10-20T14:41:33.451934,-9.465648854961833,-0.5267175572519084,-4.4961832061068705,0.3950432739257812,0.0526724365234375,9.054870678710937,28.76529411764706
2025-10-20T14:41:33.470933,-6.267175572519084,-1.786259541984733,-2.6946564885496183,0.44532150878906246,0.277727392578125,9.208099584960937,28.76529411764706
2025-10-20T14:41:33.489388,-3.3969465648854964,-2.50381679389313,-1.0229007633587786,0.2442085693359375,0.2442085693359375,9.332598071289063,28.76529411764706
2025-10-20T14:41:33.511713,-2.4580152671755724,-3.3969465648854964,0.48854961832061067,0.0430956298828125,0.5722141967773438,9.375693701171874,28.81235294117647
2025-10-20T14:41:33.532012,-1.5114503816793894,-3.763358778625954,2.1908396946564888,0.2705447875976562,0.49320554199218747,9.56962403564453,28.81235294117647
2025-10-20T14:41:33.549235,0.7404580152671756,-4.32824427480916,3.6412213740458017,0.1771709228515625,0.7254431030273437,9.215282189941405,28.906470588235294
2025-10-20T14:41:33.571354,0.6030534351145038,-4.702290076335878,4.885496183206107,-0.01915361328125,0.8212111694335937,9.536105212402344,28.76529411764706
2025-10-20T14:41:33.593374,2.633587786259542,-4.702290076335878,5.694656488549619,-0.10295067138671875,0.7733271362304687,9.291896643066405,28.859411764705882
2025-10-20T14:41:33.610290,3.114503816793893,-5.541984732824427,6.908396946564886,-0.3112462158203125,1.0965443603515623,9.332598071289063,28.906470588235294
2025-10-20T14:41:33.632412,3.0839694656488548,-6.236641221374046,7.480916030534351,0.5147533569335937,1.0654197387695312,9.572018237304688,28.76529411764706
2025-10-20T14:41:33.655614,3.6030534351145036,-5.458015267175573,7.480916030534351,0.047884033203124995,1.2114660400390624,9.502586389160156,28.859411764705882
2025-10-20T14:41:33.672521,5.091603053435114,-4.244274809160306,6.9541984732824424,-0.23223756103515625,1.2785036865234374,9.404424121093749,28.81235294117647
2025-10-20T14:41:33.694115,6.32824427480916,-5.076335877862595,6.351145038167939,0.15562310791015624,0.9840168823242187,9.425971936035156,28.76529411764706
2025-10-20T14:41:33.717289,8.366412213740459,-4.473282442748092,4.9465648854961835,0.009576806640625,0.9720458740234375,9.18655177001953,28.859411764705882
2025-10-20T14:41:33.734692,11.664122137404581,-4.916030534351145,3.5877862595419847,-0.06703764648437499,0.9145850341796874,9.085995300292968,28.81235294117647
2025-10-20T14:41:33.754890,15.977099236641221,-5.656488549618321,1.3740458015267176,0.1388636962890625,0.6727706665039062,9.131485131835937,28.81235294117647
2025-10-20T14:41:33.777665,20.885496183206108,-5.557251908396947,-0.9618320610687023,-0.1484405029296875,1.0414777221679687,8.813056311035156,28.859411764705882
2025-10-20T14:41:33.796280,25.419847328244273,-5.740458015267175,-3.8625954198473282,-0.258573779296875,0.6464344482421874,8.588001354980468,28.76529411764706
2025-10-20T14:41:33.815124,33.69465648854962,-5.541984732824427,-6.572519083969466,-0.3758896606445312,1.0223241088867188,8.339004382324218,28.81235294117647
2025-10-20T14:41:33.837525,40.10687022900763,-6.198473282442748,-8.725190839694656,0.13407529296874998,1.1180921752929687,9.165003955078124,28.81235294117647
2025-10-20T14:41:33.857503,45.229007633587784,-4.541984732824427,-10.641221374045802,0.0,1.3718775512695311,8.810662109374999,28.76529411764706
2025-10-20T14:41:33.875100,46.74045801526717,-3.717557251908397,-11.564885496183207,-0.45489831542968745,1.465251416015625,8.760383874511719,28.81235294117647
2025-10-20T14:41:33.896870,47.68702290076336,-3.816793893129771,-12.007633587786259,-0.3806780639648437,1.235408056640625,8.949525805664061,28.671176470588236
2025-10-20T14:41:33.917625,47.038167938931295,0.42748091603053434,-12.67175572519084,-0.6464344482421874,1.2306196533203124,8.980650427246093,28.859411764705882
2025-10-20T14:41:33.934560,45.541984732824424,0.8015267175572519,-12.900763358778626,-0.2657563842773437,1.2497732666015624,9.246406811523437,28.718235294117648
2025-10-20T14:41:33.956667,39.83206106870229,2.145038167938931,-12.15267175572519,-0.258573779296875,1.707065783691406,9.469067565917967,28.81235294117647
2025-10-20T14:41:33.978456,31.0381679389313,2.5343511450381677,-11.541984732824428,0.1197100830078125,1.9967641845703124,9.373299499511718,28.81235294117647
2025-10-20T14:41:33.995347,19.419847328244273,3.7786259541984735,-11.022900763358779,-0.41898529052734373,2.094926452636719,9.696516723632811,28.859411764705882
2025-10-20T14:41:34.017516,10.572519083969466,0.1450381679389313,-11.053435114503817,-0.040701428222656245,1.89620771484375,9.507374792480467,28.76529411764706
2025-10-20T14:41:34.040591,-1.6259541984732824,2.2748091603053435,-10.48091603053435,0.19153613281249998,2.4013842651367185,9.294290844726563,28.906470588235294
2025-10-20T14:41:34.057947,-11.870229007633588,2.7022900763358777,-9.908396946564885,0.22026655273437498,2.427720483398437,9.330203869628905,28.76529411764706
2025-10-20T14:41:34.080441,-23.297709923664122,3.16793893129771,-9.267175572519085,0.7062894897460937,2.291250988769531,8.975862023925782,28.76529411764706
2025-10-20T14:41:34.103820,-33.01526717557252,7.541984732824427,-8.580152671755725,0.603338818359375,2.0733786376953125,8.700528833007812,28.718235294117648
2025-10-20T14:41:34.120705,-41.80152671755725,8.610687022900763,-8.106870229007633,0.5363011718749999,1.8746598999023436,9.82580361328125,28.76529411764706
2025-10-20T14:41:34.142709,-46.30534351145038,7.893129770992366,-7.427480916030534,1.5322890624999999,2.5905261962890624,10.292672937011718,28.76529411764706
2025-10-20T14:41:34.166061,-50.83969465648855,12.351145038167939,-6.732824427480916,0.6775590698242188,2.1404162841796874,10.187328063964843,28.859411764705882
2025-10-20T14:41:34.183048,-54.7557251908397,10.374045801526718,-5.137404580152672,0.7637503295898437,0.9457096557617187,9.988609326171874,28.76529411764706
2025-10-20T14:41:34.204236,-60.42748091603053,10.305343511450381,-4.641221374045801,0.8116343627929687,1.7022773803710936,9.236830004882812,28.81235294117647
2025-10-20T14:41:34.227411,-63.404580152671755,7.557251908396947,-3.122137404580153,0.6177040283203125,0.016759411621093748,8.348581188964843,28.81235294117647
2025-10-20T14:41:34.244303,-68.16030534351145,6.9465648854961835,-1.900763358778626,1.3623007446289062,1.5921441040039062,9.708487731933593,28.76529411764706
2025-10-20T14:41:34.265129,-67.43511450381679,5.7251908396946565,-1.6717557251908397,2.2481553588867187,0.3112462158203125,9.5384994140625,28.81235294117647
2025-10-20T14:41:34.288155,-71.29007633587786,1.213740458015267,-1.2366412213740459,2.73896669921875,0.45489831542968745,9.160215551757812,28.718235294117648
2025-10-20T14:41:34.305490,-67.42748091603053,0.5343511450381679,-0.7099236641221374,1.3814543579101561,0.9720458740234375,11.219228979492186,28.859411764705882
2025-10-20T14:41:34.325944,-66.53435114503817,0.6412213740458015,-0.916030534351145,0.6871358764648438,-0.44532150878906246,9.70369932861328,28.76529411764706
2025-10-20T14:41:34.349182,-66.70229007633588,3.763358778625954,-1.251908396946565,-0.03591302490234375,-0.603338818359375,9.516951599121093,28.859411764705882
2025-10-20T14:41:34.366513,-61.17557251908397,0.5038167938931297,-1.7709923664122138,0.26336218261718747,-1.6711527587890624,9.45470235595703,28.953529411764706
2025-10-20T14:41:34.387063,-51.50381679389313,3.0610687022900764,-3.0381679389312977,-0.40462008056640625,-1.6543933471679686,8.839392529296875,28.906470588235294
2025-10-20T14:41:34.409991,-39.86259541984733,2.6946564885496183,-4.526717557251908,-0.7948749511718749,-3.1076737548828124,8.307879760742187,28.718235294117648
2025-10-20T14:41:34.426902,-27.50381679389313,2.4122137404580153,-5.8320610687022905,-0.7637503295898437,-2.166752502441406,8.530540515136718,28.76529411764706
2025-10-20T14:41:34.447991,-15.145038167938932,-0.2366412213740458,-7.030534351145038,-0.7015010864257812,-1.678335363769531,9.382876306152344,28.81235294117647
2025-10-20T14:41:34.470859,-3.0610687022900764,-2.8473282442748094,-7.801526717557252,-0.7445967163085937,-1.4101847778320311,8.825027319335938,28.859411764705882
2025-10-20T14:41:34.488637,9.076335877862595,-7.412213740458015,-8.282442748091603,-0.13646949462890623,-1.0510545288085937,8.59278975830078,28.859411764705882
2025-10-20T14:41:34.508593,16.091603053435115,-10.213740458015268,-7.6106870229007635,0.06464344482421874,-0.13646949462890623,8.453926062011718,28.81235294117647
2025-10-20T14:41:34.531396,17.35114503816794,-12.816793893129772,-6.1679389312977095,0.11013327636718749,-0.16519991455078123,9.397241516113281,28.76529411764706
2025-10-20T14:41:34.550467,12.564885496183207,-13.877862595419847,-5.427480916030534,0.622492431640625,1.5634136840820312,10.793061083984375,28.859411764705882
2025-10-20T14:41:34.568986,4.366412213740458,-12.427480916030534,-4.083969465648855,0.1005564697265625,0.8762778076171874,10.752359655761719,28.906470588235294
2025-10-20T14:41:34.591586,-0.6106870229007634,-11.412213740458014,-3.480916030534351,0.6009446166992187,1.1013327636718748,10.443507641601562,28.953529411764706
2025-10-20T14:41:34.611592,-10.366412213740459,-8.511450381679388,-2.7938931297709924,0.04548983154296875,0.8499415893554687,9.885658654785155,28.859411764705882
2025-10-20T14:41:34.629441,-18.435114503816795,-7.732824427480916,-2.5877862595419847,0.2059013427734375,0.0143652099609375,9.947907897949218,28.76529411764706
2025-10-20T14:41:34.652149,-22.862595419847327,-3.2290076335877864,-2.6946564885496183,0.16519991455078123,-0.8882488159179687,9.866505041503906,28.76529411764706
2025-10-20T14:41:34.672892,-26.61832061068702,-0.6106870229007634,-2.4580152671755724,-0.143652099609375,-1.6639701538085936,10.058041174316406,28.859411764705882
2025-10-20T14:41:34.689940,-27.33587786259542,-0.31297709923664124,-0.3969465648854962,-0.27293898925781246,-2.1356278808593747,9.153032946777342,28.906470588235294
2025-10-20T14:41:34.711774,-24.389312977099237,-0.6793893129770993,0.022900763358778626,-0.9217676391601562,-2.6288334228515624,9.387664709472656,28.859411764705882
2025-10-20T14:41:34.733841,-22.519083969465647,-0.0916030534351145,5.572519083969466,-1.4628572143554686,-3.1555577880859373,9.026140258789061,28.859411764705882
2025-10-20T14:41:34.751090,-14.427480916030534,1.8702290076335877,8.458015267175572,-0.8212111694335937,-2.212242333984375,8.506598498535157,28.859411764705882
2025-10-20T14:41:34.773009,-4.793893129770993,-3.8244274809160306,9.83206106870229,0.7565677246093749,-2.499546533203125,7.237671618652343,28.859411764705882
2025-10-20T14:41:34.796594,7.145038167938932,-4.358778625954199,11.793893129770993,0.6296750366210937,-1.0127473022460938,8.640673791503906,28.81235294117647
2025-10-20T14:41:34.814497,11.648854961832061,-1.9694656488549618,13.19083969465649,0.33758243408203126,-1.4173673828125,9.560047229003906,28.953529411764706
2025-10-20T14:41:34.834994,11.114503816793894,-0.8931297709923665,14.206106870229007,-0.05746083984375,-1.35990654296875,9.203311181640624,28.859411764705882
2025-10-20T14:41:34.857783,12.091603053435115,-1.366412213740458,14.86259541984733,-0.9361328491210937,-1.0941501586914062,9.006986645507812,28.81235294117647
2025-10-20T14:41:34.876005,14.511450381679388,0.5038167938931297,14.19083969465649,-1.0702081420898437,-1.47482822265625,8.748412866210938,28.859411764705882
2025-10-20T14:41:34.895490,17.801526717557252,0.2595419847328244,12.549618320610687,-0.3232172241210937,-0.6153098266601562,9.234435803222656,28.859411764705882
2025-10-20T14:41:34.918186,17.72519083969466,3.6030534351145036,10.435114503816793,-0.46686932373046874,-0.1005564697265625,8.84178673095703,28.76529411764706
2025-10-20T14:41:34.937267,18.16793893129771,5.633587786259542,7.015267175572519,0.51714755859375,-0.086191259765625,8.32463917236328,28.81235294117647
2025-10-20T14:41:34.955926,15.664122137404581,7.33587786259542,3.068702290076336,0.814028564453125,0.7254431030273437,9.794678991699218,28.76529411764706
2025-10-20T14:41:34.978312,17.282442748091604,4.885496183206107,-0.4122137404580153,1.2856862915039062,-1.5011644409179687,8.183381274414062,28.859411764705882
2025-10-20T14:41:34.998802,11.877862595419847,3.5877862595419847,-2.366412213740458,1.7166425903320313,-1.898601916503906,8.635885388183594,28.76529411764706
2025-10-20T14:41:35.016165,13.511450381679388,1.9312977099236641,-3.2900763358778624,2.2026655273437497,-2.4660277099609376,8.532934716796875,28.859411764705882
2025-10-20T14:41:35.038263,12.648854961832061,4.114503816793893,-3.404580152671756,1.8148048583984373,-1.3407529296874998,8.049305981445311,28.81235294117647
2025-10-20T14:41:35.060452,12.885496183206106,2.8396946564885495,-4.900763358778626,2.262520568847656,-0.7493851196289062,8.214505895996094,28.718235294117648
2025-10-20T14:41:35.077348,11.603053435114504,3.33587786259542,-6.656488549618321,1.9656395629882812,-0.9002198242187499,8.40843623046875,28.859411764705882
2025-10-20T14:41:35.099563,11.122137404580153,3.8244274809160306,-7.099236641221374,1.4508862060546874,-0.9528922607421875,8.796296899414061,28.76529411764706
2025-10-20T14:41:35.122259,6.99236641221374,3.7099236641221376,-7.8396946564885495,0.3016694091796875,-0.6464344482421874,9.361328491210937,28.76529411764706
2025-10-20T14:41:35.139129,-0.5038167938931297,4.916030534351145,-8.870229007633588,-0.4165910888671875,-0.16759411621093748,10.060435375976562,28.81235294117647
2025-10-20T14:41:35.161375,-6.564885496183206,4.5038167938931295,-9.877862595419847,-0.4477157104492187,0.7350199096679687,9.72285294189453,28.81235294117647
2025-10-20T14:41:35.184722,-17.480916030534353,4.320610687022901,-10.404580152671755,-0.8978256225585937,0.603338818359375,9.756371765136718,28.76529411764706
2025-10-20T14:41:35.201627,-24.427480916030536,4.1679389312977095,-11.450381679389313,-0.9002198242187499,1.024718310546875,9.763554370117188,28.81235294117647
2025-10-20T14:41:35.222717,-29.17557251908397,3.9923664122137406,-12.549618320610687,-0.41898529052734373,1.0773907470703123,10.005368737792969,28.76529411764706
2025-10-20T14:41:35.245710,-35.282442748091604,4.748091603053435,-12.954198473282442,-0.44053310546874996,0.2154781494140625,10.115502014160155,28.76529411764706
2025-10-20T14:41:35.263038,-43.93893129770992,4.824427480916031,-12.748091603053435,-0.7565677246093749,-0.047884033203124995,9.964667309570311,28.81235294117647
2025-10-20T14:41:35.283293,-48.587786259541986,3.7404580152671754,-12.893129770992367,-0.8403647827148437,-0.8906430175781249,9.562441430664062,28.906470588235294
2025-10-20T14:41:35.306151,-48.06870229007634,5.580152671755725,-13.595419847328245,-0.3711012573242187,-1.0319009155273438,9.478644372558593,28.76529411764706
2025-10-20T14:41:35.324351,-45.86259541984733,3.3435114503816794,-13.465648854961833,0.373495458984375,-1.1755530151367186,9.402029919433593,28.81235294117647
2025-10-20T14:41:35.343928,-41.98473282442748,3.427480916030534,-12.961832061068701,0.6775590698242188,-1.8938135131835936,9.251195214843749,28.859411764705882
2025-10-20T14:41:35.366480,-37.29770992366412,3.4427480916030535,-11.603053435114504,0.49799394531249996,-2.877830395507812,8.406042028808594,28.81235294117647
2025-10-20T14:41:35.385112,-30.557251908396946,2.053435114503817,-10.206106870229007,-0.009576806640625,-3.095702746582031,8.757989672851561,28.76529411764706
2025-10-20T14:41:35.404257,-23.374045801526716,-1.748091603053435,-8.938931297709924,0.239420166015625,-3.1866824096679687,8.997409838867187,28.81235294117647
2025-10-20T14:41:35.426798,-16.358778625954198,-0.007633587786259542,-7.526717557251908,0.18435352783203124,-2.999934680175781,9.212887988281249,28.953529411764706
2025-10-20T14:41:35.445863,-10.32824427480916,-2.2213740458015265,-5.786259541984733,0.02633621826171875,-2.6240450195312497,9.509768994140625,28.859411764705882
2025-10-20T14:41:35.464608,-7.465648854961832,-2.2519083969465647,-4.091603053435114,-0.5195417602539062,-2.3056161987304686,9.368511096191405,28.76529411764706
2025-10-20T14:41:35.487190,-5.549618320610687,-5.8320610687022905,-2.6717557251908395,-0.1867477294921875,-2.0183119995117185,9.296685046386719,28.718235294117648
2025-10-20T14:41:35.506704,-3.6259541984732824,-4.129770992366412,-1.4427480916030535,-0.316034619140625,-1.85790048828125,9.82580361328125,28.81235294117647
2025-10-20T14:41:35.524809,-2.5419847328244276,-3.5572519083969465,-0.05343511450381679,-0.3758896606445312,-1.9584569580078124,9.727641345214844,28.859411764705882
2025-10-20T14:41:35.547309,-2.8931297709923665,-5.66412213740458,0.9923664122137404,-0.4213794921875,-2.080561242675781,9.97184991455078,28.76529411764706
2025-10-20T14:41:35.567697,-5.145038167938932,-3.4732824427480917,2.16793893129771,-0.1197100830078125,-1.7094599853515624,10.187328063964843,28.81235294117647
2025-10-20T14:41:35.585062,-7.244274809160306,-2.7022900763358777,3.16793893129771,-0.39264907226562495,-1.7118541870117185,9.694122521972655,28.76529411764706
2025-10-20T14:41:35.607182,-7.137404580152672,-2.3740458015267176,5.8320610687022905,-0.44532150878906246,-1.8507178833007811,9.560047229003906,28.906470588235294
2025-10-20T14:41:35.628320,-5.732824427480916,-2.312977099236641,4.931297709923665,-0.09816226806640624,-1.8459294799804686,9.193734375,28.718235294117648
2025-10-20T14:41:35.645165,-4.755725190839694,-1.5419847328244274,6.3816793893129775,-0.15322890625,-3.4811692138671875,8.738836059570312,28.81235294117647
2025-10-20T14:41:35.667081,-1.0458015267175573,-2.8931297709923665,7.374045801526718,-0.08140285644531249,-3.0310593017578125,8.616731774902343,28.76529411764706
2025-10-20T14:41:35.688645,3.549618320610687,-3.1526717557251906,9.13740458015267,0.14604630126953125,-3.299209887695312,8.980650427246093,28.859411764705882
2025-10-20T14:41:35.705489,7.473282442748092,-3.0610687022900764,10.267175572519085,-0.05985504150390625,-2.636016027832031,9.452308154296874,28.76529411764706
2025-10-20T14:41:35.727444,12.786259541984732,-4.4961832061068705,11.427480916030534,0.0383072265625,-2.492363928222656,9.090783703613281,28.76529411764706
2025-10-20T14:41:35.749871,14.793893129770993,-3.4427480916030535,12.450381679389313,0.0383072265625,-2.104503259277344,8.346186987304687,28.859411764705882
2025-10-20T14:41:35.766804,17.427480916030536,-2.6030534351145036,12.870229007633588,0.2753331909179687,-1.5753846923828123,8.992621435546875,28.624117647058824
2025-10-20T14:41:35.788598,18.770992366412212,-3.83206106870229,12.511450381679388,0.3758896606445312,-1.2689268798828124,9.248801013183593,28.906470588235294
2025-10-20T14:41:35.811767,14.992366412213741,-0.8702290076335878,11.877862595419847,0.6631938598632812,-0.4285620971679687,9.481038574218749,28.906470588235294
2025-10-20T14:41:35.828626,9.19083969465649,2.717557251908397,10.648854961832061,0.36391865234375,-0.7230489013671875,9.1554271484375,28.76529411764706
2025-10-20T14:41:35.850699,8.0,2.8702290076335877,8.687022900763358,0.07900865478515624,-0.6009446166992187,10.026916552734374,28.859411764705882
2025-10-20T14:41:35.872826,1.6412213740458015,2.763358778625954,6.534351145038168,0.20829554443359374,-0.5626373901367188,8.111555224609374,28.76529411764706
2025-10-20T14:41:35.889748,-2.16793893129771,-0.8320610687022901,4.7251908396946565,0.6296750366210937,-0.5674257934570313,8.913612780761719,28.718235294117648
2025-10-20T14:41:35.912017,-4.854961832061068,-0.2595419847328244,2.786259541984733,0.09337386474609374,-2.2768857788085937,8.55448253173828,28.81235294117647
2025-10-20T14:41:35.935355,-6.442748091603053,-0.2366412213740458,2.1068702290076335,0.5482721801757812,-2.1404162841796874,8.169016064453125,28.718235294117648
2025-10-20T14:41:35.952266,-4.00763358778626,-2.0610687022900764,1.297709923664122,-0.105344873046875,-1.927332336425781,8.470685473632813,28.859411764705882
2025-10-20T14:41:35.973666,-2.236641221374046,2.3435114503816794,0.007633587786259542,1.0749965454101562,-2.4253262817382812,7.996633544921875,28.906470588235294
2025-10-20T14:41:35.996719,-2.3740458015267176,1.3740458015267176,0.366412213740458,1.3479355346679687,-0.8188169677734375,9.418789331054686,28.859411764705882
2025-10-20T14:41:36.013602,-3.0610687022900764,5.641221374045801,0.3893129770992366,0.46208092041015625,-1.9536685546875,8.59278975830078,28.76529411764706
2025-10-20T14:41:36.034332,-1.6793893129770991,3.1908396946564888,-0.06870229007633588,0.3758896606445312,-1.120486376953125,8.228871105957031,28.76529411764706
2025-10-20T14:41:36.057179,1.366412213740458,-1.7251908396946565,-1.0076335877862594,0.16519991455078123,-1.4437036010742186,8.611943371582031,28.76529411764706
2025-10-20T14:41:36.074944,2.3435114503816794,3.3893129770992365,-2.33587786259542,-0.8762778076171874,-1.0534487304687499,10.364498986816406,28.906470588235294
2025-10-20T14:41:36.095030,4.396946564885496,1.8549618320610688,-3.6564885496183206,-0.45010991210937495,-1.2665326782226562,9.215282189941405,28.859411764705882
2025-10-20T14:41:36.117689,3.0229007633587788,1.0763358778625953,-5.061068702290076,-0.37828386230468747,-0.8259995727539062,8.9255837890625,28.859411764705882
2025-10-20T14:41:36.135894,6.297709923664122,0.9770992366412213,-6.190839694656488,-0.23223756103515625,-1.7621324218749999,8.966285217285156,28.81235294117647
2025-10-20T14:41:36.155308,4.916030534351145,1.3358778625954197,-6.809160305343512,-0.2825157958984375,-1.5538368774414062,8.961496813964843,28.81235294117647
2025-10-20T14:41:36.177741,5.916030534351145,0.183206106870229,-7.435114503816794,-0.08858546142578125,-1.5370774658203123,10.038887561035155,28.859411764705882
2025-10-20T14:41:36.196875,4.702290076335878,3.3969465648854964,-8.022900763358779,-1.0007762939453124,-1.89620771484375,9.311050256347656,28.81235294117647
2025-10-20T14:41:36.215388,4.206106870229007,5.740458015267175,-8.32824427480916,-0.0047884033203125,-1.5227122558593749,9.87608184814453,28.81235294117647
2025-10-20T14:41:36.237540,5.717557251908397,2.801526717557252,-8.83206106870229,0.105344873046875,-2.1715409057617188,9.272743029785156,28.906470588235294
2025-10-20T14:41:36.257546,8.473282442748092,1.984732824427481,-8.877862595419847,0.5793968017578125,-1.838746875,9.926360083007811,28.859411764705882
2025-10-20T14:41:36.275156,6.717557251908397,4.534351145038168,-8.50381679389313,-0.239420166015625,-1.9919757812499999,10.153809240722655,28.906470588235294
2025-10-20T14:41:36.297121,8.007633587786259,2.2595419847328246,-7.595419847328245,-0.02154781494140625,-1.6160861206054686,9.782707983398437,28.81235294117647
2025-10-20T14:41:36.317575,6.7251908396946565,4.5038167938931295,-6.33587786259542,-0.24660277099609373,-2.0302830078125,9.519345800781249,28.718235294117648
2025-10-20T14:41:36.334812,6.1603053435114505,1.7938931297709924,-5.083969465648855,0.373495458984375,-1.1156979736328125,9.746794958496093,28.906470588235294
2025-10-20T14:41:36.356812,4.893129770992366,0.5801526717557252,-5.702290076335878,-0.1005564697265625,-1.5155296508789062,9.926360083007811,28.81235294117647
2025-10-20T14:41:36.378553,1.984732824427481,0.3969465648854962,-2.427480916030534,0.047884033203124995,-1.149216796875,10.199299072265624,28.718235294117648
2025-10-20T14:41:36.395437,0.2366412213740458,-0.1297709923664122,-1.0381679389312977,0.11252747802734374,-0.8283937744140625,10.218452685546874,28.859411764705882
2025-10-20T14:41:36.417497,-1.5419847328244274,-1.6793893129770991,0.17557251908396945,0.5865794067382812,-1.4628572143554686,9.976638317871092,28.671176470588236
2025-10-20T14:41:36.440177,-3.572519083969466,-0.8396946564885496,1.4274809160305344,0.30885201416015623,-0.9409212524414062,10.01015714111328,28.76529411764706
2025-10-20T14:41:36.457074,-5.7251908396946565,-0.6412213740458015,2.435114503816794,1.120486376953125,-0.9696516723632812,10.338162768554687,28.906470588235294
2025-10-20T14:41:36.479267,-7.5038167938931295,0.5648854961832062,2.946564885496183,0.7900865478515624,-1.0654197387695312,9.543287817382812,28.81235294117647
2025-10-20T14:41:36.502713,-11.099236641221374,1.8702290076335877,3.66412213740458,0.689530078125,-0.8882488159179687,9.897629663085937,28.718235294117648
2025-10-20T14:41:36.519594,-12.534351145038167,2.8396946564885495,4.00763358778626,-0.16280571289062498,-0.9959878906249999,9.624690673828125,28.76529411764706
2025-10-20T14:41:36.540666,-14.312977099236642,1.7328244274809161,3.9389312977099236,0.38786066894531246,-1.1372457885742187,9.279925634765624,28.76529411764706
2025-10-20T14:41:36.564617,-11.786259541984732,-0.7709923664122137,3.595419847328244,-0.3064578125,-1.3144167114257812,9.275137231445312,28.859411764705882
2025-10-20T14:41:36.582389,-7.8320610687022905,-3.0610687022900764,3.068702290076336,-0.49799394531249996,-1.0869675537109373,9.287108239746093,28.859411764705882
2025-10-20T14:41:36.602207,-7.137404580152672,-2.0916030534351147,2.2748091603053435,-0.3112462158203125,-1.458068811035156,8.949525805664061,28.76529411764706
2025-10-20T14:41:36.624772,-3.351145038167939,-4.564885496183206,1.7633587786259541,-0.6105214233398437,-1.4508862060546874,8.865728747558594,28.76529411764706
2025-10-20T14:41:36.643394,0.9694656488549618,-3.946564885496183,1.0534351145038168,-0.28012159423828126,-1.7860744384765623,8.997409838867187,28.81235294117647
2025-10-20T14:41:36.662529,5.114503816793893,-4.236641221374046,0.5648854961832062,-0.105344873046875,-1.697488977050781,8.192958081054687,28.906470588235294
2025-10-20T14:41:36.685210,7.931297709923665,-9.549618320610687,-0.29770992366412213,-0.36631285400390623,-1.905784521484375,8.1594392578125,28.81235294117647
2025-10-20T14:41:36.704717,12.748091603053435,-7.679389312977099,0.05343511450381679,-0.02633621826171875,-2.0566192260742184,8.360552197265624,28.81235294117647
2025-10-20T14:41:36.722795,16.6793893129771,-2.0763358778625953,0.3435114503816794,0.062249243164062495,-1.6735469604492186,8.712499841308594,28.859411764705882
2025-10-20T14:41:36.745154,22.51145038167939,-4.206106870229007,0.7633587786259542,-0.39743747558593745,-1.6208745239257811,8.882488159179687,28.81235294117647
2025-10-20T14:41:36.765518,24.717557251908396,-5.396946564885496,2.5877862595419847,0.373495458984375,-0.967257470703125,8.853757739257812,28.859411764705882
2025-10-20T14:41:36.782688,25.702290076335878,-5.870229007633588,4.488549618320611,0.1292868896484375,-1.0510545288085937,8.990227233886719,28.906470588235294
2025-10-20T14:41:36.804863,25.671755725190838,-6.282442748091603,7.694656488549619,0.27293898925781246,-0.7805097412109374,9.141061938476563,28.81235294117647
2025-10-20T14:41:36.826515,21.419847328244273,-5.709923664122138,7.251908396946565,0.4213794921875,-0.6296750366210937,9.069235888671875,28.859411764705882
2025-10-20T14:41:36.843442,21.442748091603054,-1.2290076335877862,8.450381679389313,-0.143652099609375,-0.45968671875,9.560047229003906,28.81235294117647
2025-10-20T14:41:36.865388,14.931297709923664,-2.5572519083969465,9.549618320610687,-0.076614453125,-0.1484405029296875,9.600748657226562,28.718235294117648
2025-10-20T14:41:36.887826,9.992366412213741,-3.4427480916030535,10.610687022900763,-0.18435352783203124,-0.6009446166992187,9.227253198242186,28.906470588235294
2025-10-20T14:41:36.904749,5.633587786259542,-1.2290076335877862,10.870229007633588,-0.5865794067382812,-1.0031704956054688,8.702923034667968,28.859411764705882
2025-10-20T14:41:36.927094,4.427480916030534,-2.900763358778626,10.84732824427481,-0.45010991210937495,-1.649604943847656,9.011775048828124,28.859411764705882
2025-10-20T14:41:36.950564,4.244274809160306,-0.21374045801526717,9.679389312977099,0.1484405029296875,-1.1707646118164061,8.157045056152343,28.81235294117647
2025-10-20T14:41:36.967478,11.435114503816793,0.06870229007633588,8.412213740458014,-0.0909796630859375,-0.7613561279296874,8.650250598144531,28.76529411764706
2025-10-20T14:41:36.988302,14.122137404580153,0.06870229007633588,7.282442748091603,0.15083470458984374,-0.6967126831054687,8.147468249511718,28.76529411764706
2025-10-20T14:41:37.011210,18.0381679389313,2.3053435114503817,5.549618320610687,-0.4836287353515625,-1.3311761230468748,7.841010437011718,28.859411764705882
2025-10-20T14:41:37.028966,28.625954198473284,3.1297709923664123,3.5343511450381677,-0.43574470214843747,-0.6967126831054687,8.130708837890625,28.76529411764706
2025-10-20T14:41:37.048969,36.221374045801525,2.351145038167939,1.4809160305343512,-0.17477672119140625,-0.5027823486328125,7.824251025390624,28.76529411764706
2025-10-20T14:41:37.071573,43.17557251908397,1.6641221374045803,-0.5954198473282443,-0.29448680419921874,-0.2705447875976562,8.346186987304687,28.859411764705882
2025-10-20T14:41:37.090252,51.587786259541986,-0.5343511450381679,-1.8778625954198473,-0.55545478515625,-0.679953271484375,8.315062365722655,28.906470588235294
2025-10-20T14:41:37.109122,56.38931297709924,-2.267175572519084,-3.3893129770992365,-0.28490999755859375,-0.9097966308593749,8.410830432128906,28.859411764705882
2025-10-20T14:41:37.131254,58.02290076335878,-4.00763358778626,-5.213740458015267,-0.13646949462890623,0.16519991455078123,8.511386901855468,28.81235294117647
2025-10-20T14:41:37.150766,58.7557251908397,-3.267175572519084,-6.732824427480916,0.23702596435546874,0.8595183959960937,8.619125976562499,28.906470588235294
2025-10-20T14:41:37.168945,53.11450381679389,-2.7786259541984735,-7.099236641221374,0.35194764404296874,1.3000515014648437,9.87608184814453,28.859411764705882
2025-10-20T14:41:37.191177,45.091603053435115,-1.7938931297709924,-7.114503816793893,0.34715924072265625,1.5107412475585937,10.405200415039062,28.81235294117647
2025-10-20T14:41:37.211524,30.862595419847327,0.1984732824427481,-6.816793893129771,0.4213794921875,1.4963760375976562,9.952696301269532,28.76529411764706
2025-10-20T14:41:37.228776,21.366412213740457,2.3206106870229006,-7.2748091603053435,1.5275006591796874,1.68551796875,9.938331091308592,28.76529411764706
2025-10-20T14:41:37.250676,9.801526717557252,4.66412213740458,-6.862595419847328,1.66636435546875,2.3343466186523436,9.746794958496093,28.81235294117647
2025-10-20T14:41:37.272336,-1.2900763358778626,4.465648854961832,-5.511450381679389,1.656787548828125,1.2880804931640624,9.835380419921874,28.81235294117647
2025-10-20T14:41:37.289243,-12.366412213740459,5.00763358778626,-4.114503816793893,1.6711527587890624,1.5610194824218748,10.498574279785156,28.953529411764706
2025-10-20T14:41:37.311137,-20.38167938931298,6.083969465648855,-3.045801526717557,1.3718775512695311,1.5107412475585937,9.923965881347655,28.81235294117647
2025-10-20T14:41:37.333663,-26.206106870229007,6.564885496183206,-3.885496183206107,-0.39983167724609375,0.7924807495117187,9.64623848876953,28.76529411764706
2025-10-20T14:41:37.350634,-21.99236641221374,1.5801526717557253,-1.4198473282442747,0.8595183959960937,1.350329736328125,9.272743029785156,28.81235294117647
2025-10-20T14:41:37.372787,-14.290076335877863,1.633587786259542,-1.8015267175572518,0.12689268798828124,1.3120225097656248,10.66856259765625,28.81235294117647
2025-10-20T14:41:37.395939,-12.221374045801527,-0.5114503816793893,-1.083969465648855,-0.00718260498046875,0.047884033203124995,9.495403784179686,28.859411764705882
2025-10-20T14:41:37.413146,-6.6183206106870225,-2.1603053435114505,-0.6564885496183206,-0.1867477294921875,0.5219359619140624,9.366116894531249,28.859411764705882
2025-10-20T14:41:37.435766,-1.381679389312977,-3.0,0.09923664122137404,0.3280056274414062,0.4908113403320312,9.986215124511718,28.81235294117647
2025-10-20T14:41:37.458883,2.8396946564885495,-1.297709923664122,0.8931297709923665,0.20829554443359374,1.0941501586914062,10.084377392578125,28.859411764705882
2025-10-20T14:41:37.476621,5.198473282442748,-2.9160305343511452,1.7557251908396947,0.2657563842773437,1.2832920898437499,9.892841259765625,28.76529411764706
2025-10-20T14:41:37.496596,3.9389312977099236,-2.145038167938931,2.6717557251908395,0.4261678955078125,1.369483349609375,9.938331091308592,28.76529411764706
2025-10-20T14:41:37.519255,2.4198473282442747,-1.702290076335878,3.877862595419847,1.120486376953125,1.254561669921875,9.993397729492187,28.76529411764706
2025-10-20T14:41:37.538294,0.816793893129771,-3.16793893129771,4.595419847328245,0.4525041137695312,1.66636435546875,10.077194787597655,28.76529411764706
2025-10-20T14:41:37.556736,1.7404580152671756,-3.145038167938931,4.251908396946565,0.39983167724609375,1.3024457031249999,9.674968908691406,28.81235294117647
2025-10-20T14:41:37.579208,0.42748091603053434,-2.4656488549618323,4.412213740458015,-0.1149216796875,1.7860744384765623,9.528922607421874,28.81235294117647
2025-10-20T14:41:37.599579,2.427480916030534,-4.198473282442748,4.312977099236641,0.4429273071289062,1.419761584472656,9.320627062988281,28.859411764705882
2025-10-20T14:41:37.616696,4.366412213740458,-5.419847328244275,3.946564885496183,-0.3399766357421875,2.231395947265625,9.428366137695312,28.906470588235294
2025-10-20T14:41:37.638769,7.480916030534351,-8.129770992366412,3.1297709923664123,0.7613561279296874,2.319981408691406,9.5001921875,28.859411764705882
