timestamp,gyro_x,gyro_y,gyro_z,acc_x,acc_y,acc_z,temp
2025-10-20T14:34:12.501259,-8.229007633587786,-1.3893129770992367,-4.793893129770993,0.967257470703125,-2.319981408691406,10.070012182617187,29.56529411764706
2025-10-20T14:34:12.524654,-10.198473282442748,2.2213740458015265,-5.068702290076335,-0.19871873779296872,-1.455674609375,8.74601866455078,29.56529411764706
2025-10-20T14:34:12.542907,-10.374045801526718,0.7862595419847328,-4.6106870229007635,-0.4836287353515625,-2.5067291381835934,9.160215551757812,29.56529411764706
2025-10-20T14:34:12.562159,-10.580152671755725,-0.5877862595419847,-3.6412213740458017,0.12210428466796874,-1.3168109130859373,10.046070166015625,29.61235294117647
2025-10-20T14:34:12.584926,-8.206106870229007,1.4961832061068703,-3.2213740458015265,-1.5251064575195312,-2.8323405639648436,8.90643017578125,29.51823529411765
2025-10-20T14:34:12.603872,-7.091603053435114,0.0,-2.8396946564885495,-0.5985504150390625,-2.5737667846679684,9.191340173339842,29.61235294117647
2025-10-20T14:34:12.622195,-3.954198473282443,1.8625954198473282,-2.381679389312977,-0.9169792358398436,-2.6767174560546874,8.418013037109375,29.659411764705883
2025-10-20T14:34:12.644313,-2.9770992366412212,-0.366412213740458,-3.8396946564885495,-1.1061211669921875,-2.6719290527343746,8.710105639648438,29.61235294117647
2025-10-20T14:34:12.664514,-1.8549618320610688,0.366412213740458,-0.9465648854961832,-0.41419688720703124,-2.5809493896484375,9.466673364257812,29.51823529411765
2025-10-20T14:34:12.681404,-1.3740458015267176,0.7938931297709924,1.9312977099236641,-0.4261678955078125,-2.5737667846679684,8.846575134277343,29.659411764705883
2025-10-20T14:34:12.703090,0.42748091603053434,0.4351145038167939,0.7938931297709924,0.0383072265625,-2.6384102294921874,8.635885388183594,29.56529411764706
2025-10-20T14:34:12.724532,2.030534351145038,1.1221374045801527,1.6259541984732824,-0.28969840087890625,-2.85388837890625,8.667010009765624,29.56529411764706
2025-10-20T14:34:12.741378,3.3740458015267176,0.3816793893129771,2.9083969465648853,-0.1580173095703125,-2.8419173706054686,8.750807067871094,29.61235294117647
2025-10-20T14:34:12.763199,4.755725190839694,-0.05343511450381679,3.8702290076335877,0.02633621826171875,-2.710236279296875,9.0788126953125,29.56529411764706
2025-10-20T14:34:12.785921,4.442748091603053,1.5954198473282444,5.236641221374046,0.258573779296875,-3.0071172851562498,8.695740429687499,29.659411764705883
2025-10-20T14:34:12.802751,7.0,-0.13740458015267176,6.320610687022901,0.2920926025390625,-2.7916391357421872,9.363722692871093,29.61235294117647
2025-10-20T14:34:12.823949,5.557251908396947,-1.5648854961832062,7.236641221374046,-0.09816226806640624,-2.375048046875,8.805873706054687,29.61235294117647
2025-10-20T14:34:12.846822,4.480916030534351,-0.007633587786259542,8.030534351145038,-0.1149216796875,-2.4516625,8.836998327636719,29.659411764705883
2025-10-20T14:34:12.863642,5.473282442748092,-1.5572519083969465,8.770992366412214,-0.13168109130859373,-2.1260510742187497,9.198522778320312,29.61235294117647
2025-10-20T14:34:12.883964,3.2519083969465647,-2.045801526717557,9.290076335877863,0.26815058593749996,-2.1835119140624997,9.198522778320312,29.659411764705883
2025-10-20T14:34:12.906394,2.0610687022900764,-1.465648854961832,9.236641221374045,-0.13646949462890623,-1.9608511596679685,8.748412866210938,29.61235294117647
2025-10-20T14:34:12.924465,4.3816793893129775,-1.7328244274809161,8.67175572519084,-0.0430956298828125,-1.8363526733398436,9.184157568359375,29.659411764705883
2025-10-20T14:34:12.943469,4.076335877862595,-3.5343511450381677,8.49618320610687,-0.09816226806640624,-1.9584569580078124,9.279925634765624,29.000588235294117
2025-10-20T14:34:12.965493,3.801526717557252,-1.7786259541984732,7.755725190839694,-0.11013327636718749,-1.6328455322265625,9.397241516113281,29.706470588235295
2025-10-20T14:34:12.984409,1.4732824427480915,-2.427480916030534,7.595419847328245,-0.11731588134765625,-1.8602946899414061,9.361328491210937,29.659411764705883
2025-10-20T14:34:13.002788,1.183206106870229,-1.4427480916030535,6.885496183206107,-0.38786066894531246,-1.9943699829101562,8.463502868652343,29.56529411764706
2025-10-20T14:34:13.024875,0.8854961832061069,-3.480916030534351,5.969465648854962,0.07422025146484375,-1.649604943847656,9.524134204101562,29.61235294117647
2025-10-20T14:34:13.045065,-1.5877862595419847,-2.0,5.5038167938931295,-0.5793968017578125,-1.9752163696289062,8.935160595703124,29.61235294117647
2025-10-20T14:34:13.062008,-0.9465648854961832,-2.763358778625954,4.709923664122138,-0.3184288208007812,-1.8267758666992187,8.86094034423828,29.659411764705883
2025-10-20T14:34:13.083977,-0.33587786259541985,-3.4732824427480917,4.206106870229007,0.10773907470703124,-1.675941162109375,9.222464794921875,29.56529411764706
2025-10-20T14:34:13.105603,-0.5419847328244275,-2.572519083969466,3.1755725190839694,-0.22505495605468748,-1.6424223388671875,8.913612780761719,29.61235294117647
2025-10-20T14:34:13.122446,0.9923664122137404,-3.0610687022900764,2.5572519083969465,-0.2705447875976562,-1.6328455322265625,9.179369165039063,29.659411764705883
2025-10-20T14:34:13.144398,-0.015267175572519083,-2.351145038167939,2.1297709923664123,0.02633621826171875,-1.70467158203125,9.330203869628905,29.61235294117647
2025-10-20T14:34:13.166932,0.183206106870229,-1.633587786259542,1.7404580152671756,-0.03591302490234375,-1.6304513305664061,9.143456140136719,29.706470588235295
2025-10-20T14:34:13.183754,0.4351145038167939,-1.1603053435114503,1.4045801526717556,-0.19871873779296872,-1.9632453613281249,9.133879333496093,29.56529411764706
2025-10-20T14:34:13.205757,0.9923664122137404,-0.33587786259541985,0.9389312977099237,-0.040701428222656245,-1.9105729248046874,9.14824454345703,29.659411764705883
2025-10-20T14:34:13.228937,0.9618320610687023,-0.4351145038167939,0.8320610687022901,-0.28969840087890625,-1.6208745239257811,9.327809667968749,29.51823529411765
2025-10-20T14:34:13.245761,-0.7786259541984732,0.5419847328244275,0.6564885496183206,-0.239420166015625,-1.7932570434570312,9.33978067626953,29.61235294117647
2025-10-20T14:34:13.266694,-1.3053435114503817,-0.5725190839694656,0.7099236641221374,0.076614453125,-1.6065093139648436,9.10993731689453,29.61235294117647
2025-10-20T14:34:13.289550,-2.114503816793893,0.25190839694656486,0.7938931297709924,-0.1484405029296875,-1.7693150268554687,9.179369165039063,29.659411764705883
2025-10-20T14:34:13.306375,-3.404580152671756,1.450381679389313,0.6030534351145038,-0.22744915771484372,-1.8914193115234375,9.129090930175781,29.706470588235295
2025-10-20T14:34:13.326829,-4.969465648854962,1.381679389312977,1.1450381679389312,-0.0383072265625,-1.8842367065429686,9.306261853027344,29.61235294117647
2025-10-20T14:34:13.349572,-5.862595419847328,2.427480916030534,1.3435114503816794,-0.4740519287109375,-2.2577321655273437,9.100360510253905,29.61235294117647
2025-10-20T14:34:13.366816,-5.99236641221374,2.2977099236641223,1.702290076335878,-0.1197100830078125,-1.908178723144531,8.853757739257812,29.61235294117647
2025-10-20T14:34:13.386913,-5.557251908396947,3.351145038167939,2.2290076335877864,-0.28969840087890625,-2.2361843505859373,9.220070593261719,29.56529411764706
2025-10-20T14:34:13.409506,-4.3893129770992365,2.549618320610687,2.900763358778626,0.03591302490234375,-2.403778466796875,8.619125976562499,29.56529411764706
2025-10-20T14:34:13.427175,-2.3587786259541983,3.786259541984733,3.427480916030534,-0.09337386474609374,-1.9728221679687499,9.143456140136719,29.61235294117647
2025-10-20T14:34:13.446868,-0.48854961832061067,1.5648854961832062,4.244274809160306,0.2059013427734375,-2.152387292480469,8.78432589111328,29.659411764705883
2025-10-20T14:34:13.470390,1.3511450381679388,1.0458015267175573,5.229007633587786,0.2537853759765625,-1.8626888916015625,9.090783703613281,29.61235294117647
2025-10-20T14:34:13.488091,0.4198473282442748,1.6564885496183206,6.2748091603053435,0.3136404174804687,-1.6256629272460936,9.332598071289063,29.61235294117647
2025-10-20T14:34:13.508138,0.37404580152671757,0.5114503816793893,6.99236641221374,-0.00718260498046875,-1.9967641845703124,8.619125976562499,29.706470588235295
2025-10-20T14:34:13.530818,0.5419847328244275,0.7404580152671756,7.740458015267175,0.18914193115234373,-1.6208745239257811,9.91438907470703,29.56529411764706
2025-10-20T14:34:13.549350,-2.0076335877862594,0.9389312977099237,8.213740458015268,0.18914193115234373,-1.1851298217773436,9.519345800781249,29.56529411764706
2025-10-20T14:34:13.568719,-5.412213740458015,0.31297709923664124,8.877862595419847,-0.3064578125,-2.7724855224609373,7.611167077636718,29.61235294117647
2025-10-20T14:34:13.591182,-2.0610687022900764,1.4961832061068703,8.213740458015268,-0.1484405029296875,-2.020706201171875,9.244012609863281,29.56529411764706
2025-10-20T14:34:13.611019,-6.145038167938932,0.35877862595419846,8.389312977099237,-0.05027823486328125,-0.7493851196289062,10.24718310546875,29.56529411764706
2025-10-20T14:34:13.628393,-4.427480916030534,-1.1221374045801527,7.519083969465649,-0.24181436767578124,-2.250549560546875,7.656656909179687,29.61235294117647
2025-10-20T14:34:13.650176,-1.5190839694656488,-1.015267175572519,6.549618320610687,-0.44053310546874996,-1.8531120849609375,8.573636145019531,29.659411764705883
2025-10-20T14:34:13.671232,-2.7557251908396947,-2.267175572519084,6.061068702290076,-0.086191259765625,-1.2521674682617188,9.718064538574218,29.61235294117647
2025-10-20T14:34:13.688057,-1.0458015267175573,-2.122137404580153,5.068702290076335,-0.4860229370117187,-1.5610194824218748,8.379705810546875,29.706470588235295
2025-10-20T14:34:13.709946,-1.5648854961832062,-2.648854961832061,4.221374045801527,-0.13168109130859373,-1.9728221679687499,9.169792358398437,29.61235294117647
2025-10-20T14:34:13.732256,0.6641221374045801,-1.8473282442748091,2.5877862595419847,-0.5698199951171875,-1.7932570434570312,8.492233288574218,29.56529411764706
2025-10-20T14:34:13.749083,7.076335877862595,-4.99236641221374,0.8778625954198473,-0.3016694091796875,-2.0374656127929685,8.279149340820313,29.56529411764706
2025-10-20T14:34:13.770709,11.65648854961832,-5.755725190839694,0.22900763358778625,-0.7302315063476562,-2.5665841796874997,8.418013037109375,29.56529411764706
2025-10-20T14:34:13.793863,16.18320610687023,-4.015267175572519,-0.7251908396946565,-0.11731588134765625,-1.5346832641601562,9.165003955078124,29.61235294117647
2025-10-20T14:34:13.810695,17.0381679389313,-5.732824427480916,-1.297709923664122,-0.5985504150390625,-0.07900865478515624,11.877634436035155,29.61235294117647
2025-10-20T14:34:13.831008,12.572519083969466,-4.67175572519084,-1.0229007633587786,0.14604630126953125,-0.7900865478515624,9.229647399902344,29.56529411764706
2025-10-20T14:34:13.853705,12.82442748091603,-2.450381679389313,-1.2595419847328244,0.1771709228515625,-1.3407529296874998,8.520963708496094,29.56529411764706
2025-10-20T14:34:13.872553,7.984732824427481,-3.480916030534351,-0.6946564885496184,0.5602431884765625,-1.3479355346679687,10.620678564453124,29.61235294117647
2025-10-20T14:34:13.891208,2.7709923664122136,-2.33587786259542,-0.7251908396946565,0.35673604736328124,-0.9361328491210937,9.282319836425781,29.706470588235295
2025-10-20T14:34:13.913387,-2.7557251908396947,-3.3740458015267176,-0.5419847328244275,0.17956512451171874,-1.3623007446289062,9.753977563476562,29.61235294117647
2025-10-20T14:34:13.933158,-8.740458015267176,-0.6030534351145038,-0.32061068702290074,0.42377369384765623,-1.3311761230468748,9.947907897949218,29.61235294117647
2025-10-20T14:34:13.950741,-11.19083969465649,-1.8396946564885497,-0.648854961832061,-0.0526724365234375,-1.3263877197265623,8.916006982421875,29.61235294117647
2025-10-20T14:34:13.972665,-13.381679389312977,-1.4961832061068703,-1.0305343511450382,-0.0718260498046875,-1.2761094848632812,10.970232006835937,29.61235294117647
2025-10-20T14:34:13.993276,-20.786259541984734,1.8931297709923665,-1.0916030534351144,0.2753331909179687,-1.5562310791015623,9.045293872070312,29.659411764705883
2025-10-20T14:34:14.010169,-22.763358778625953,-1.5038167938931297,-1.213740458015267,0.07422025146484375,-1.8243816650390623,8.212111694335936,29.61235294117647
2025-10-20T14:34:14.032012,-19.0381679389313,4.465648854961832,-1.816793893129771,-0.8834604125976562,-1.8100164550781248,9.777919580078125,29.61235294117647
2025-10-20T14:34:14.053888,-17.16793893129771,1.0076335877862594,-0.09923664122137404,-0.7829039428710937,-2.6384102294921874,7.165845568847656,29.000588235294117
2025-10-20T14:34:14.070782,-10.488549618320612,0.7786259541984732,-2.282442748091603,-0.8283937744140625,-2.750937707519531,8.681375219726561,29.61235294117647
2025-10-20T14:34:14.092434,-5.740458015267175,1.0916030534351144,-2.49618320610687,-0.7805097412109374,-2.4588451049804685,8.690952026367187,29.706470588235295
2025-10-20T14:34:14.115472,-0.9236641221374046,-0.35877862595419846,-2.4580152671755724,-0.488417138671875,-2.2098481323242187,8.695740429687499,29.706470588235295
2025-10-20T14:34:14.132395,8.351145038167939,-2.053435114503817,-2.312977099236641,-0.3950432739257812,-1.8626888916015625,8.566453540039062,29.61235294117647
2025-10-20T14:34:14.153150,11.16793893129771,-1.5267175572519085,-2.0610687022900764,-0.5578489868164063,-1.867477294921875,9.17458076171875,29.61235294117647
2025-10-20T14:34:14.175822,15.961832061068701,-1.4885496183206106,-1.5267175572519085,-0.143652099609375,-1.8842367065429686,9.095572106933593,29.61235294117647
2025-10-20T14:34:14.193220,17.671755725190838,-2.3893129770992365,-0.366412213740458,-0.16998831787109375,-1.695094775390625,9.234435803222656,29.659411764705883
2025-10-20T14:34:14.213207,17.328244274809162,-1.4580152671755726,0.5343511450381679,-0.24660277099609373,-1.20667763671875,9.392453112792968,29.000588235294117
2025-10-20T14:34:14.235838,14.625954198473282,-0.8854961832061069,1.748091603053435,-0.4381389038085937,-0.7541735229492187,9.234435803222656,29.706470588235295
2025-10-20T14:34:14.254462,9.122137404580153,-1.8702290076335877,2.49618320610687,-0.239420166015625,-1.5346832641601562,9.923965881347655,29.61235294117647
2025-10-20T14:34:14.273276,3.3282442748091605,-0.7938931297709924,3.2748091603053435,-0.430956298828125,-0.928950244140625,8.911218579101561,29.61235294117647
2025-10-20T14:34:14.295324,-1.534351145038168,0.6564885496183206,1.9770992366412214,0.19871873779296872,-1.1133037719726562,10.184933862304687,29.56529411764706
2025-10-20T14:34:14.314684,-6.0,1.8778625954198473,4.244274809160306,-0.316034619140625,-1.3455413330078123,10.242394702148436,29.706470588235295
2025-10-20T14:34:14.332453,-12.778625954198473,-0.25190839694656486,4.717557251908397,-0.12210428466796874,-1.429338391113281,9.701305126953125,29.706470588235295
2025-10-20T14:34:14.354350,-13.679389312977099,-0.5877862595419847,4.526717557251908,-0.5339069702148437,-1.448492004394531,9.945513696289062,29.659411764705883
2025-10-20T14:34:14.375406,-12.877862595419847,-0.05343511450381679,3.984732824427481,0.21787235107421873,-1.7956512451171873,9.241618408203124,29.61235294117647
2025-10-20T14:34:14.392232,-13.977099236641221,2.0763358778625953,3.5801526717557253,-0.44532150878906246,-2.4875755249023435,7.750030773925781,29.659411764705883
2025-10-20T14:34:14.414180,-10.549618320610687,2.183206106870229,2.633587786259542,-0.5626373901367188,-2.114080065917969,8.875305554199219,29.51823529411765
2025-10-20T14:34:14.436481,-5.977099236641221,0.7404580152671756,2.16793893129771,-0.23702596435546874,-2.0925322509765625,8.939948999023438,29.56529411764706
2025-10-20T14:34:14.453282,0.3893129770992366,0.40458015267175573,1.099236641221374,-0.4955997436523437,-2.4396914916992185,8.180987072753906,29.61235294117647
2025-10-20T14:34:14.476114,5.595419847328245,-0.7557251908396947,0.3435114503816794,-0.5698199951171875,-2.398990063476562,8.882488159179687,29.659411764705883
2025-10-20T14:34:14.499242,12.358778625954198,-1.381679389312977,-0.8015267175572519,-0.5195417602539062,-2.147598889160156,8.655039001464843,29.61235294117647
2025-10-20T14:34:14.516105,18.946564885496183,-2.5114503816793894,-1.0381679389312977,-0.5530605834960938,-2.157175695800781,9.205705383300781,29.659411764705883
2025-10-20T14:34:14.536977,23.946564885496183,-3.7251908396946565,-1.0458015267175573,-0.45489831542968745,-2.2385785522460937,8.980650427246093,29.61235294117647
2025-10-20T14:34:14.559811,27.435114503816795,-5.862595419847328,-1.1297709923664123,-0.1292868896484375,-1.4437036010742186,9.504980590820312,29.659411764705883
2025-10-20T14:34:14.577994,28.72519083969466,-4.106870229007634,-0.8320610687022901,-0.047884033203124995,-1.618480322265625,9.13627353515625,29.659411764705883
2025-10-20T14:34:14.597169,26.366412213740457,-1.3435114503816794,-0.9618320610687023,-0.0526724365234375,-0.7206546997070312,9.943119494628906,29.61235294117647
2025-10-20T14:34:14.619214,26.412213740458014,-5.8320610687022905,-0.45038167938931295,0.7589619262695312,-1.0342951171875,10.134655627441406,29.659411764705883
2025-10-20T14:34:14.638163,20.763358778625953,-2.312977099236641,0.04580152671755725,0.38307226562499996,-0.9504980590820312,9.574412438964844,29.659411764705883
2025-10-20T14:34:14.656544,15.091603053435115,-0.33587786259541985,0.20610687022900764,0.5578489868164063,-0.5698199951171875,9.871293444824218,29.61235294117647
2025-10-20T14:34:14.678629,9.541984732824428,-0.6870229007633588,0.6793893129770993,0.7278373046875,-0.5027823486328125,9.964667309570311,29.56529411764706
2025-10-20T14:34:14.698840,3.282442748091603,0.15267175572519084,0.6946564885496184,1.8291700683593748,-1.4006079711914061,10.647014782714843,29.659411764705883
2025-10-20T14:34:14.715932,-3.7557251908396947,1.0534351145038168,0.2748091603053435,0.7517793212890624,-0.0909796630859375,10.333374365234375,29.56529411764706
2025-10-20T14:34:14.737725,-6.801526717557252,3.2977099236641223,-0.2824427480916031,0.8475473876953125,-0.9457096557617187,9.813832604980469,29.61235294117647
2025-10-20T14:34:14.759213,-8.114503816793894,2.6106870229007635,-1.4351145038167938,0.1292868896484375,-0.32561142578124996,8.870517150878905,29.61235294117647
2025-10-20T14:34:14.776021,-10.80916030534351,2.572519083969466,-2.0916030534351147,0.040701428222656245,-0.7134720947265625,8.470685473632813,29.61235294117647
2025-10-20T14:34:14.797836,-9.938931297709924,3.687022900763359,-3.595419847328244,-0.34715924072265625,-0.30885201416015623,8.705317236328124,29.56529411764706
2025-10-20T14:34:14.820153,-5.267175572519084,2.4885496183206106,-5.1679389312977095,-1.5801730957031248,-0.20350714111328125,8.465897070312499,29.51823529411765
2025-10-20T14:34:14.836956,0.5267175572519084,1.5190839694656488,-6.969465648854962,-1.5538368774414062,0.011971008300781249,8.63109698486328,29.706470588235295
2025-10-20T14:34:14.858762,7.206106870229007,-0.3511450381679389,-8.282442748091603,-1.4915876342773438,-0.6440402465820312,9.042899670410156,29.56529411764706
2025-10-20T14:34:14.881886,13.396946564885496,-4.99236641221374,-10.358778625954198,-0.7398083129882812,-0.3136404174804687,8.619125976562499,29.56529411764706
2025-10-20T14:34:14.898735,15.923664122137405,-4.32824427480916,-12.297709923664122,-0.033518823242187495,-0.5386953735351562,9.2320416015625,29.659411764705883
2025-10-20T14:34:14.919682,18.396946564885496,-7.190839694656488,-14.244274809160306,-1.3215993164062498,-0.42377369384765623,8.74601866455078,29.56529411764706
2025-10-20T14:34:14.942643,20.64885496183206,-9.374045801526718,-16.16793893129771,-0.7589619262695312,-0.7398083129882812,9.311050256347656,29.659411764705883
2025-10-20T14:34:14.960319,22.16030534351145,-8.679389312977099,-17.396946564885496,-0.15562310791015624,-0.37828386230468747,8.647856396484375,29.659411764705883
2025-10-20T14:34:14.979856,20.46564885496183,-8.282442748091603,-17.549618320610687,0.062249243164062495,-0.08858546142578125,9.270348828125,29.56529411764706
2025-10-20T14:34:15.002341,16.045801526717558,-7.763358778625954,-16.18320610687023,0.7326257080078125,0.076614453125,8.863334545898438,29.659411764705883
2025-10-20T14:34:15.021262,10.801526717557252,-4.9541984732824424,-15.297709923664122,1.0606313354492187,0.35673604736328124,9.023746057128905,29.61235294117647
2025-10-20T14:34:15.039461,4.511450381679389,-4.641221374045801,-13.534351145038167,1.6112977172851561,0.2657563842773437,10.85291612548828,29.706470588235295
2025-10-20T14:34:15.061604,-3.0076335877862594,-4.702290076335878,-11.931297709923664,1.465251416015625,-0.411802685546875,10.251971508789062,29.61235294117647
2025-10-20T14:34:15.081799,-10.770992366412214,-3.969465648854962,-11.076335877862595,1.0749965454101562,-0.46686932373046874,10.244788903808594,29.61235294117647
2025-10-20T14:34:15.098723,-12.312977099236642,-4.312977099236641,-10.603053435114504,0.43574470214843747,-1.2114660400390624,8.70771143798828,29.659411764705883
2025-10-20T14:34:15.120482,-15.229007633587786,1.183206106870229,-11.229007633587786,0.1771709228515625,-0.7757213378906249,8.781931689453124,29.56529411764706
2025-10-20T14:34:15.141944,-12.83969465648855,-0.13740458015267176,-11.053435114503817,0.9121908325195311,-1.1468225952148436,10.330980163574218,29.659411764705883
2025-10-20T14:34:15.158769,-12.297709923664122,2.435114503816794,-11.801526717557252,0.06464344482421874,-0.8786720092773437,9.552864624023437,29.61235294117647
2025-10-20T14:34:15.180663,-12.534351145038167,2.984732824427481,-12.335877862595419,0.6177040283203125,-0.5339069702148437,9.660603698730467,29.56529411764706
2025-10-20T14:34:15.203391,-10.099236641221374,6.442748091603053,-13.366412213740459,0.41419688720703124,-0.9097966308593749,8.779537487792968,29.51823529411765
2025-10-20T14:34:15.220220,-7.106870229007634,6.2748091603053435,-14.49618320610687,0.4477157104492187,-0.49799394531249996,9.14824454345703,29.61235294117647
2025-10-20T14:34:15.243231,-4.656488549618321,9.732824427480915,-15.213740458015268,0.3854664672851562,-0.4908113403320312,9.165003955078124,29.56529411764706
2025-10-20T14:34:15.266155,-7.809160305343512,6.3816793893129775,-17.580152671755727,0.11013327636718749,-0.5291185668945312,8.8872765625,29.000588235294117
2025-10-20T14:34:15.283003,-7.083969465648855,5.5038167938931295,-16.099236641221374,0.59376201171875,0.033518823242187495,9.45470235595703,29.706470588235295
2025-10-20T14:34:15.303575,-6.969465648854962,5.33587786259542,-16.015267175572518,0.5793968017578125,-0.11252747802734374,8.971073620605468,29.61235294117647
2025-10-20T14:34:15.326225,-7.00763358778626,5.6183206106870225,-16.12213740458015,-0.07900865478515624,0.2059013427734375,9.634267480468749,29.706470588235295
2025-10-20T14:34:15.343923,-8.65648854961832,5.641221374045801,-15.610687022900763,-0.28730419921875,-0.44053310546874996,9.212887988281249,29.61235294117647
2025-10-20T14:34:15.363621,-11.84732824427481,4.854961832061068,-15.19083969465649,0.15562310791015624,-0.29927520751953124,9.56962403564453,29.61235294117647
2025-10-20T14:34:15.385959,-10.854961832061068,6.816793893129771,-15.427480916030534,-0.3136404174804687,-0.70868369140625,8.990227233886719,29.56529411764706
2025-10-20T14:34:15.404497,-9.473282442748092,6.679389312977099,-15.98473282442748,-0.6536170532226562,-0.40940848388671874,9.009380847167968,29.56529411764706
2025-10-20T14:34:15.423234,-6.099236641221374,7.67175572519084,-16.87786259541985,-0.45489831542968745,-0.4261678955078125,9.64623848876953,29.56529411764706
2025-10-20T14:34:15.445597,-7.526717557251908,6.740458015267175,-17.541984732824428,-0.29448680419921874,-0.6081272216796875,9.665392102050781,29.706470588235295
2025-10-20T14:34:15.465451,-9.396946564885496,7.106870229007634,-17.931297709923665,-0.584185205078125,-0.7637503295898437,9.198522778320312,29.659411764705883
2025-10-20T14:34:15.482886,-7.5038167938931295,5.488549618320611,-18.68702290076336,-0.5363011718749999,-0.74699091796875,8.734047656249999,29.56529411764706
2025-10-20T14:34:15.504841,-5.6106870229007635,3.5114503816793894,-19.0,-0.1197100830078125,-1.5131354492187499,9.481038574218749,29.56529411764706
2025-10-20T14:34:15.526039,-5.358778625954199,3.83206106870229,-18.84732824427481,0.3280056274414062,-1.197100830078125,9.567229833984374,29.56529411764706
2025-10-20T14:34:15.542995,-8.007633587786259,2.4732824427480917,-18.053435114503817,-0.02154781494140625,-1.1923124267578125,9.200916979980468,29.61235294117647
2025-10-20T14:34:15.564846,-8.83206106870229,3.480916030534351,-17.404580152671755,0.1771709228515625,-1.4532804077148436,9.325415466308593,29.61235294117647
2025-10-20T14:34:15.586825,-7.465648854961832,2.381679389312977,-16.15267175572519,-0.2537853759765625,-0.93852705078125,9.485826977539062,29.61235294117647
2025-10-20T14:34:15.603774,-6.1679389312977095,1.3053435114503817,-14.893129770992367,0.316034619140625,-1.6831237670898436,9.512163195800781,29.61235294117647
2025-10-20T14:34:15.625593,-7.66412213740458,3.50381679389313,-13.641221374045802,-0.047884033203124995,-1.3862427612304686,9.89523546142578,29.659411764705883
2025-10-20T14:34:15.648838,-8.435114503816793,5.770992366412214,-12.106870229007633,0.11731588134765625,-1.4125789794921875,9.64623848876953,29.56529411764706
2025-10-20T14:34:15.665658,-5.374045801526718,2.7404580152671754,-11.290076335877863,-0.143652099609375,-1.714248388671875,9.452308154296874,29.706470588235295
2025-10-20T14:34:15.686695,-2.0381679389312977,3.267175572519084,-10.610687022900763,-0.4070142822265625,-2.068590234375,9.294290844726563,29.61235294117647
2025-10-20T14:34:15.709468,-3.2213740458015265,0.2824427480916031,-11.709923664122137,-0.20350714111328125,-2.231395947265625,9.447519750976562,29.659411764705883
2025-10-20T14:34:15.726705,-4.786259541984733,2.5419847328244276,-8.633587786259541,-0.016759411621093748,-1.2378022583007813,9.536105212402344,29.659411764705883
2025-10-20T14:34:15.746651,-3.946564885496183,0.4198473282442748,-5.870229007633588,0.10773907470703124,-0.16759411621093748,9.789890588378906,29.56529411764706
2025-10-20T14:34:15.769135,-3.1068702290076335,2.946564885496183,-7.748091603053435,-0.43574470214843747,-1.1659762084960936,9.557653027343749,29.659411764705883
2025-10-20T14:34:15.787233,-4.450381679389313,1.7404580152671756,-7.229007633587786,0.09816226806640624,-2.0973206542968748,9.485826977539062,29.706470588235295
2025-10-20T14:34:15.806359,-7.290076335877862,3.1068702290076335,-6.7251908396946565,-0.09816226806640624,-1.5945383056640625,9.114725720214842,29.56529411764706
2025-10-20T14:34:15.828861,-10.709923664122137,3.122137404580153,-6.961832061068702,0.6488286499023437,-0.8571241943359375,9.574412438964844,29.61235294117647
2025-10-20T14:34:15.848240,-11.038167938931299,4.4961832061068705,-6.458015267175573,-0.09337386474609374,-0.9648632690429687,9.428366137695312,29.56529411764706
2025-10-20T14:34:15.866068,-11.625954198473282,2.595419847328244,-6.221374045801527,0.6081272216796875,-0.7805097412109374,9.564835632324218,29.706470588235295
2025-10-20T14:34:15.888012,-14.267175572519085,3.763358778625954,-5.770992366412214,0.19632453613281248,-0.5913678100585937,9.222464794921875,29.51823529411765
2025-10-20T14:34:15.908262,-13.297709923664122,3.6259541984732824,-5.442748091603053,0.3136404174804687,-1.5227122558593749,8.71489404296875,30.271176470588237
2025-10-20T14:34:15.925231,-12.374045801526718,2.564885496183206,-5.290076335877862,0.2154781494140625,-1.0319009155273438,8.726865051269531,29.659411764705883
2025-10-20T14:34:15.947063,-11.374045801526718,3.4580152671755724,-4.870229007633588,0.0047884033203125,-1.2976572998046874,8.37012900390625,29.659411764705883
2025-10-20T14:34:15.968669,-8.13740458015267,2.4656488549618323,-5.1679389312977095,0.05985504150390625,-1.1037269653320312,9.006986645507812,29.706470588235295
2025-10-20T14:34:15.985485,-5.824427480916031,0.15267175572519084,-5.198473282442748,0.0383072265625,-1.120486376953125,8.305485559082031,29.51823529411765
2025-10-20T14:34:16.007215,-2.6564885496183206,2.549618320610687,-5.4961832061068705,0.09337386474609374,-1.2713210815429687,8.090007409667969,29.659411764705883
2025-10-20T14:34:16.029664,2.1526717557251906,0.6412213740458015,-3.969465648854962,0.028730419921875,-1.9847931762695312,8.619125976562499,29.659411764705883
2025-10-20T14:34:16.046475,2.351145038167939,1.6793893129770991,-6.0458015267175576,0.6200982299804687,-1.4700398193359374,8.671798413085938,29.56529411764706
2025-10-20T14:34:16.068313,1.9770992366412214,2.5343511450381677,-6.137404580152672,0.5363011718749999,-1.1228805786132812,8.070853796386718,29.61235294117647
2025-10-20T14:34:16.091406,8.916030534351146,0.19083969465648856,-6.603053435114504,0.4836287353515625,-3.1364041748046874,9.406818322753905,29.61235294117647
2025-10-20T14:34:16.108222,2.068702290076336,3.2290076335877864,-5.221374045801527,0.63206923828125,-0.9816226806640624,9.203311181640624,29.706470588235295
2025-10-20T14:34:16.128971,-0.6564885496183206,5.297709923664122,-5.8396946564885495,0.7733271362304687,-1.2785036865234374,7.48906279296875,29.61235294117647
2025-10-20T14:34:16.151680,4.99236641221374,1.0,-6.450381679389313,-0.603338818359375,-1.3215993164062498,9.320627062988281,29.61235294117647
2025-10-20T14:34:16.169349,-0.549618320610687,2.5267175572519083,-6.0534351145038165,0.26336218261718747,-1.0965443603515623,9.150638745117186,29.61235294117647
2025-10-20T14:34:16.188888,2.6030534351145036,0.45038167938931295,-7.015267175572519,-0.6464344482421874,-1.2737152832031249,8.283937744140625,29.61235294117647
2025-10-20T14:34:16.211262,0.5038167938931297,-0.732824427480916,-7.091603053435114,0.2442085693359375,-1.1444283935546875,9.679757312011718,29.61235294117647
2025-10-20T14:34:16.229778,2.2061068702290076,0.44274809160305345,-8.290076335877863,-0.2442085693359375,-0.8547299926757812,8.470685473632813,29.61235294117647
2025-10-20T14:34:16.248447,6.519083969465649,-0.5267175572519084,-9.381679389312977,-0.16041151123046873,-0.9361328491210937,9.325415466308593,29.56529411764706
2025-10-20T14:34:16.270700,5.99236641221374,2.053435114503817,-9.931297709923664,-0.7565677246093749,-1.2952630981445312,9.023746057128905,29.61235294117647
2025-10-20T14:34:16.290114,9.0,1.0381679389312977,-11.244274809160306,-0.5602431884765625,-1.7405846069335937,8.09479581298828,29.659411764705883
2025-10-20T14:34:16.307937,17.328244274809162,-1.1221374045801527,-12.16030534351145,-0.28012159423828126,-1.8076222534179687,9.131485131835937,29.61235294117647
2025-10-20T14:34:16.329814,18.65648854961832,0.7862595419847328,-13.297709923664122,-0.7996633544921875,-2.480392919921875,7.941566906738281,29.659411764705883
2025-10-20T14:34:16.350050,27.3206106870229,-2.49618320610687,-14.129770992366412,-0.19871873779296872,-1.838746875,8.504204296874999,29.659411764705883
2025-10-20T14:34:16.366996,32.50381679389313,-1.83206106870229,-14.01526717557252,-0.5195417602539062,-1.8171990600585937,8.705317236328124,29.659411764705883
2025-10-20T14:34:16.388882,35.274809160305345,-3.9236641221374047,-13.893129770992367,-0.45489831542968745,-1.6328455322265625,8.93755479736328,29.61235294117647
2025-10-20T14:34:16.410397,38.35114503816794,-5.549618320610687,-13.206106870229007,0.040701428222656245,-1.3455413330078123,9.72285294189453,29.659411764705883
2025-10-20T14:34:16.427207,37.465648854961835,-5.625954198473282,-11.954198473282442,0.354341845703125,-1.697488977050781,9.361328491210937,29.659411764705883
2025-10-20T14:34:16.449211,34.37404580152672,-4.312977099236641,-10.916030534351146,0.5434837768554687,-0.5865794067382812,9.45470235595703,29.56529411764706
2025-10-20T14:34:16.472025,30.267175572519083,-3.648854961832061,-8.977099236641221,0.9433154541015625,-0.1005564697265625,10.237606298828124,29.706470588235295
2025-10-20T14:34:16.488820,18.740458015267176,-2.633587786259542,-6.908396946564886,0.40222587890625,-0.32561142578124996,9.557653027343749,29.61235294117647
2025-10-20T14:34:16.510159,7.99236641221374,-0.7251908396946565,-5.641221374045801,0.9576806640625,0.076614453125,9.873687646484374,29.56529411764706
2025-10-20T14:34:16.533316,-1.6030534351145038,-0.4198473282442748,-4.290076335877862,0.277727392578125,0.11252747802734374,10.587159741210938,30.412352941176472
2025-10-20T14:34:16.550554,-14.335877862595419,-0.4198473282442748,-3.0381679389312977,0.2442085693359375,0.42377369384765623,10.261548315429687,29.659411764705883
2025-10-20T14:34:16.570612,-24.885496183206108,4.549618320610687,-2.549618320610687,-0.5602431884765625,0.1197100830078125,9.993397729492187,29.659411764705883
2025-10-20T14:34:16.593020,-30.12213740458015,3.9923664122137406,-2.3206106870229006,-1.005564697265625,-0.10773907470703124,9.349357482910156,29.659411764705883
2025-10-20T14:34:16.611107,-35.908396946564885,2.8702290076335877,-2.5801526717557253,-0.44532150878906246,-0.93852705078125,11.329362255859374,29.61235294117647
2025-10-20T14:34:16.630218,-42.458015267175576,4.67175572519084,-3.0610687022900764,-0.4740519287109375,-0.8212111694335937,9.038111267089842,29.56529411764706
2025-10-20T14:34:16.652604,-37.55725190839695,2.122137404580153,-3.984732824427481,-0.076614453125,-0.4572925170898437,9.988609326171874,29.61235294117647
2025-10-20T14:34:16.671959,-35.94656488549618,0.16793893129770993,-4.893129770992366,-0.5339069702148437,-1.0342951171875,9.404424121093749,29.56529411764706
2025-10-20T14:34:16.689709,-34.954198473282446,3.8702290076335877,-5.541984732824427,-0.18435352783203124,-1.3096283081054687,9.215282189941405,29.659411764705883
2025-10-20T14:34:16.711431,-28.106870229007633,0.6030534351145038,-6.061068702290076,-0.16998831787109375,-1.5011644409179687,8.504204296874999,29.659411764705883
2025-10-20T14:34:16.732042,-20.083969465648856,1.4351145038167938,-6.969465648854962,0.1005564697265625,-1.8770541015625,7.999027746582031,29.61235294117647
2025-10-20T14:34:16.748858,-11.709923664122137,-0.3816793893129771,-7.717557251908397,0.4381389038085937,-1.7693150268554687,8.508992700195313,29.659411764705883
2025-10-20T14:34:16.770755,-2.5267175572519083,-1.7404580152671756,-7.648854961832061,0.5147533569335937,-1.8602946899414061,9.011775048828124,29.706470588235295
2025-10-20T14:34:16.792634,2.7557251908396947,-0.16030534351145037,-7.458015267175573,0.59376201171875,-1.5586252807617187,8.963891015625,29.61235294117647
2025-10-20T14:34:16.809536,8.297709923664122,-1.3282442748091603,-7.480916030534351,0.4740519287109375,-1.7788918334960937,9.17458076171875,29.51823529411765
2025-10-20T14:34:16.831256,12.335877862595419,-0.7099236641221374,-7.099236641221374,0.7326257080078125,-1.6448165405273436,9.13627353515625,29.659411764705883
2025-10-20T14:34:16.854302,16.358778625954198,-3.50381679389313,-7.251908396946565,0.0718260498046875,-1.3862427612304686,10.098742602539062,29.61235294117647
2025-10-20T14:34:16.871121,10.48091603053435,0.26717557251908397,-6.305343511450381,0.2059013427734375,-1.1635820068359375,9.196128576660156,29.706470588235295
2025-10-20T14:34:16.893134,5.694656488549619,2.572519083969466,-6.175572519083969,-0.28730419921875,0.05027823486328125,8.264784130859374,29.659411764705883
2025-10-20T14:34:16.916222,0.8625954198473282,3.427480916030534,-6.923664122137405,-0.5051765502929687,0.0143652099609375,9.066841687011719,29.61235294117647
2025-10-20T14:34:16.933051,-5.152671755725191,2.053435114503817,-7.366412213740458,-0.6919242797851562,0.1484405029296875,9.670180505371093,29.659411764705883
2025-10-20T14:34:16.953378,-9.435114503816793,3.1526717557251906,-8.587786259541986,-0.9169792358398436,0.19393033447265623,9.239224206542968,29.659411764705883
2025-10-20T14:34:16.976197,-16.66412213740458,2.427480916030534,-9.229007633587786,-0.5410895751953124,-0.15322890625,9.792284790039062,29.61235294117647
2025-10-20T14:34:16.994307,-27.015267175572518,4.305343511450381,-9.793893129770993,-0.4740519287109375,-0.258573779296875,9.220070593261719,29.659411764705883
2025-10-20T14:34:17.013434,-31.03053435114504,3.954198473282443,-10.748091603053435,-1.2138602416992186,-0.5913678100585937,9.126696728515624,29.61235294117647
2025-10-20T14:34:17.035694,-32.847328244274806,3.648854961832061,-11.580152671755725,-0.20350714111328125,-0.7996633544921875,9.579200842285156,29.56529411764706
2025-10-20T14:34:17.055515,-34.038167938931295,3.633587786259542,-12.007633587786259,-0.6200982299804687,-2.250549560546875,7.951143713378905,29.61235294117647
2025-10-20T14:34:17.072853,-31.87786259541985,5.519083969465649,-13.396946564885496,-0.8188169677734375,-1.2904746948242187,8.712499841308594,29.51823529411765
2025-10-20T14:34:17.094665,-30.31297709923664,3.763358778625954,-12.86259541984733,-0.20829554443359374,-2.233790148925781,9.267954626464844,29.659411764705883
2025-10-20T14:34:17.115722,-25.984732824427482,2.786259541984733,-12.488549618320612,-0.04548983154296875,-1.3048399047851562,8.71489404296875,29.706470588235295
2025-10-20T14:34:17.132538,-20.6793893129771,3.6946564885496183,-11.320610687022901,0.5027823486328125,-2.7269956909179687,8.429984045410155,29.61235294117647
2025-10-20T14:34:17.154367,-16.763358778625953,3.5343511450381677,-9.916030534351146,0.7685387329101562,-2.0877438476562498,9.141061938476563,29.56529411764706
2025-10-20T14:34:17.176718,-15.908396946564885,2.7786259541984735,-7.251908396946565,0.8882488159179687,-2.2840683837890623,9.631873278808593,29.61235294117647
2025-10-20T14:34:17.193549,-15.572519083969466,4.656488549618321,-5.061068702290076,0.5722141967773438,-2.8562825805664063,9.18655177001953,29.659411764705883
2025-10-20T14:34:17.215212,-9.83969465648855,4.740458015267175,-3.2442748091603053,0.21308394775390624,-2.152387292480469,8.566453540039062,29.61235294117647
2025-10-20T14:34:17.238140,-7.2748091603053435,4.022900763358779,-2.1068702290076335,0.02633621826171875,-2.7533319091796873,8.597578161621094,29.61235294117647
2025-10-20T14:34:17.254964,-3.099236641221374,3.984732824427481,-1.366412213740458,-0.4955997436523437,-2.6288334228515624,9.105148913574219,29.659411764705883
2025-10-20T14:34:17.275543,-3.068702290076336,5.8396946564885495,-0.8854961832061069,-0.7972691528320313,-2.480392919921875,9.081206896972656,29.61235294117647
2025-10-20T14:34:17.298081,-0.916030534351145,4.290076335877862,-1.1908396946564885,-0.833182177734375,-2.1499930908203124,8.786720092773438,29.51823529411765
2025-10-20T14:34:17.315731,-1.3282442748091603,3.030534351145038,-1.5572519083969465,-0.8643067993164062,-1.8124106567382812,8.70771143798828,29.659411764705883
2025-10-20T14:34:17.335205,-1.083969465648855,2.381679389312977,-2.2977099236641223,-0.7158662963867187,-1.9225439331054686,9.064447485351561,29.659411764705883
2025-10-20T14:34:17.357753,-2.648854961832061,3.801526717557252,-3.312977099236641,-0.4836287353515625,-0.9911994873046874,9.466673364257812,29.61235294117647
2025-10-20T14:34:17.376687,-9.061068702290076,1.3740458015267176,-3.717557251908397,-0.21308394775390624,-0.7062894897460937,9.545682019042967,29.61235294117647
2025-10-20T14:34:17.394883,-15.083969465648854,4.351145038167939,-4.519083969465649,-0.5219359619140624,-1.8698714965820311,7.752424975585937,29.659411764705883
2025-10-20T14:34:17.417008,-11.114503816793894,2.885496183206107,-6.282442748091603,-0.09337386474609374,-1.2617442749023438,9.016563452148437,29.61235294117647
2025-10-20T14:34:17.437203,-17.213740458015266,2.6030534351145036,-5.877862595419847,0.02633621826171875,-0.7829039428710937,11.350910070800781,29.706470588235295
2025-10-20T14:34:17.454117,-23.81679389312977,3.8931297709923665,-5.694656488549619,-0.5698199951171875,-1.4006079711914061,9.0021982421875,29.56529411764706
2025-10-20T14:34:17.475869,-27.14503816793893,3.6030534351145036,-5.412213740458015,-0.17477672119140625,-1.915361328125,8.973467822265624,29.61235294117647
2025-10-20T14:34:17.497860,-30.541984732824428,4.221374045801527,-4.694656488549619,-0.622492431640625,-2.482787121582031,8.913612780761719,29.61235294117647
2025-10-20T14:34:17.514723,-29.099236641221374,2.7022900763358777,-3.969465648854962,-0.7230489013671875,-2.437297290039062,8.43956085205078,29.659411764705883
2025-10-20T14:34:17.536598,-26.15267175572519,2.435114503816794,-4.748091603053435,-1.9009961181640624,-3.0909143432617188,9.315838659667968,29.61235294117647
2025-10-20T14:34:17.558751,-24.47328244274809,3.572519083969466,-5.648854961832061,-1.1013327636718748,-2.032677209472656,8.422801440429687,29.706470588235295
2025-10-20T14:34:17.575727,-16.27480916030534,2.3893129770992365,-5.870229007633588,-0.5602431884765625,-3.5984850952148437,7.407659936523437,29.56529411764706
2025-10-20T14:34:17.597834,-11.061068702290076,0.7709923664122137,-10.427480916030534,0.5339069702148437,-3.6846763549804686,8.106766821289062,29.61235294117647
2025-10-20T14:34:17.622717,1.8778625954198473,0.6870229007633588,-12.580152671755725,0.5195417602539062,-3.385401147460937,7.697358337402343,29.61235294117647
2025-10-20T14:34:17.639723,15.435114503816793,-1.5648854961832062,-12.633587786259541,-0.22026655273437498,-3.4452561889648434,8.279149340820313,29.51823529411765
2025-10-20T14:34:17.661298,21.938931297709924,0.33587786259541985,-11.0,-0.49320554199218747,-3.220201232910156,8.310273962402343,29.659411764705883
2025-10-20T14:34:17.684447,29.244274809160306,-2.4198473282442747,-8.0,-0.09337386474609374,-3.450044592285156,8.817844714355468,29.659411764705883
2025-10-20T14:34:17.701336,33.13740458015267,-2.213740458015267,-5.442748091603053,0.8355763793945312,-3.4093431640625,9.035717065429687,29.61235294117647
2025-10-20T14:34:17.722520,32.98473282442748,-1.9694656488549618,-3.6717557251908395,0.9792284790039062,-3.361459130859375,8.611943371582031,29.51823529411765
2025-10-20T14:34:17.745381,33.32824427480916,-5.442748091603053,-1.8625954198473282,0.36391865234375,-2.8323405639648436,9.406818322753905,29.471176470588237
2025-10-20T14:34:17.762257,33.083969465648856,-4.778625954198473,0.1297709923664122,-0.02633621826171875,-2.147598889160156,9.45470235595703,29.706470588235295
2025-10-20T14:34:17.783031,27.801526717557252,-5.076335877862595,1.9236641221374047,-0.63206923828125,-2.1068974609374997,10.058041174316406,29.56529411764706
2025-10-20T14:34:17.805787,23.267175572519083,-3.0763358778625953,2.122137404580153,-0.2346317626953125,-1.6112977172851561,9.715670336914062,29.000588235294117
2025-10-20T14:34:17.823143,14.740458015267176,-2.114503816793893,4.717557251908397,0.20350714111328125,-2.032677209472656,9.165003955078124,30.36529411764706
2025-10-20T14:34:17.843436,11.351145038167939,-1.7328244274809161,4.129770992366412,0.239420166015625,-1.4508862060546874,10.117896215820313,29.659411764705883
2025-10-20T14:34:17.866299,1.7099236641221374,-0.1450381679389313,5.091603053435114,0.2059013427734375,-2.3870190551757813,10.565611926269531,29.51823529411765
2025-10-20T14:34:17.884453,-1.6870229007633588,0.5190839694656488,4.816793893129771,-0.5291185668945312,-3.5194764404296874,8.097190014648437,29.61235294117647
2025-10-20T14:34:17.904348,-10.335877862595419,0.29770992366412213,5.137404580152672,-0.9552864624023437,-2.4588451049804685,9.447519750976562,29.56529411764706
2025-10-20T14:34:17.926636,-13.595419847328245,0.5877862595419847,5.190839694656488,-0.6464344482421874,-2.2290017456054687,8.75320126953125,29.61235294117647
2025-10-20T14:34:17.945655,-6.3893129770992365,-0.20610687022900764,4.419847328244275,-1.189918225097656,-3.5051112304687497,7.826645227050781,29.61235294117647
2025-10-20T14:34:17.964074,-10.541984732824428,-1.6870229007633588,4.587786259541985,-0.9624690673828125,-2.817975354003906,8.786720092773438,29.61235294117647
2025-10-20T14:34:17.986213,-11.603053435114504,1.2366412213740459,5.778625954198473,-0.3327940307617187,-2.0302830078125,8.63109698486328,29.000588235294117
2025-10-20T14:34:18.006122,-10.969465648854962,-1.5572519083969465,4.442748091603053,-0.05027823486328125,-1.7405846069335937,9.270348828125,29.659411764705883
2025-10-20T14:34:18.023793,-11.13740458015267,3.564885496183206,5.419847328244275,-0.1197100830078125,-2.5330653564453125,9.236830004882812,29.61235294117647
2025-10-20T14:34:18.045905,-4.877862595419847,5.251908396946565,5.137404580152672,-1.1468225952148436,-1.6927005737304686,7.951143713378905,29.56529411764706
2025-10-20T14:34:18.067066,-7.557251908396947,4.267175572519084,4.961832061068702,-0.45489831542968745,-1.407790576171875,10.216058483886718,29.61235294117647
2025-10-20T14:34:18.084020,-7.374045801526718,5.366412213740458,3.6412213740458017,-0.4285620971679687,-0.8762778076171874,8.264784130859374,29.659411764705883
2025-10-20T14:34:18.106002,-5.206106870229007,0.7175572519083969,2.312977099236641,-1.1659762084960936,-0.5506663818359374,8.88009395751953,29.56529411764706
2025-10-20T14:34:18.128000,-7.7251908396946565,1.1984732824427482,0.8931297709923665,-0.30406361083984373,-0.16759411621093748,8.492233288574218,29.51823529411765
2025-10-20T14:34:18.144897,-7.099236641221374,-0.6641221374045801,-1.0076335877862594,-0.5602431884765625,-0.4525041137695312,9.260772021484375,29.56529411764706
2025-10-20T14:34:18.167011,-9.282442748091603,-1.1068702290076335,-1.7328244274809161,-0.35194764404296874,-1.388636962890625,9.710881933593749,29.706470588235295
2025-10-20T14:34:18.189901,-8.488549618320612,-1.282442748091603,-2.900763358778626,0.0143652099609375,-0.9504980590820312,9.200916979980468,29.61235294117647
2025-10-20T14:34:18.206892,-4.374045801526718,-1.6488549618320612,-5.778625954198473,0.023942016601562498,-1.6927005737304686,9.02135185546875,29.61235294117647
2025-10-20T14:34:18.228484,-2.9236641221374047,0.8854961832061069,-4.801526717557252,-0.11252747802734374,-1.956062756347656,8.640673791503906,29.56529411764706
2025-10-20T14:34:18.251706,-1.2213740458015268,-0.08396946564885496,-5.022900763358779,-0.023942016601562498,-3.2920272827148436,8.054094384765625,29.706470588235295
2025-10-20T14:34:18.269673,0.6564885496183206,0.07633587786259542,-4.6106870229007635,-0.13168109130859373,-1.6017209106445311,9.342174877929686,29.659411764705883
2025-10-20T14:34:18.289565,6.923664122137405,-0.8549618320610687,-4.297709923664122,-0.296881005859375,-2.0925322509765625,9.701305126953125,29.659411764705883
2025-10-20T14:34:18.312371,9.801526717557252,-1.3740458015267176,-4.022900763358779,-0.2753331909179687,-2.114080065917969,9.74200655517578,29.61235294117647
2025-10-20T14:34:18.331006,13.335877862595419,-0.16793893129770993,-3.099236641221374,-0.08379705810546874,-2.0254946044921875,8.825027319335938,29.56529411764706
2025-10-20T14:34:18.350251,15.625954198473282,-2.8396946564885495,-2.427480916030534,0.028730419921875,-2.3487118286132813,9.402029919433593,29.659411764705883
2025-10-20T14:34:18.372693,19.66412213740458,-2.931297709923664,-1.366412213740458,1.3263877197265623,-3.8043864379882812,9.804255798339844,29.659411764705883
2025-10-20T14:34:18.392168,11.816793893129772,-3.0916030534351147,-0.42748091603053434,0.316034619140625,-0.9935936889648437,8.702923034667968,29.56529411764706
2025-10-20T14:34:18.410399,8.061068702290076,-0.7099236641221374,0.6870229007633588,0.0143652099609375,-2.059013427734375,8.518569506835936,29.659411764705883
2025-10-20T14:34:18.432403,12.396946564885496,-2.7557251908396947,0.7175572519083969,-0.0047884033203125,-0.9840168823242187,10.594342346191405,29.706470588235295
2025-10-20T14:34:18.453173,6.022900763358779,-0.7099236641221374,1.916030534351145,-0.03591302490234375,-1.5610194824218748,9.373299499511718,29.706470588235295
2025-10-20T14:34:18.470069,2.4122137404580153,0.3816793893129771,1.7251908396946565,-0.5410895751953124,-2.013523596191406,8.805873706054687,29.56529411764706
2025-10-20T14:34:18.492028,1.0381679389312977,-0.9847328244274809,1.7099236641221374,-0.51714755859375,-1.7884686401367187,9.533711010742186,29.61235294117647
2025-10-20T14:34:18.514035,-3.2900763358778624,0.2824427480916031,1.8091603053435115,-0.6584054565429687,-1.9009961181640624,9.3852705078125,29.61235294117647
2025-10-20T14:34:18.530929,-2.0381679389312977,-0.916030534351145,1.4198473282442747,-0.8355763793945312,-1.6424223388671875,9.04050546875,29.659411764705883
2025-10-20T14:34:18.552931,-2.435114503816794,-1.2900763358778626,1.4809160305343512,-0.5746083984375,-1.8028338500976562,9.447519750976562,29.51823529411765
2025-10-20T14:34:18.576189,-5.816793893129771,-1.4961832061068703,1.450381679389313,-0.3495534423828125,-1.7286135986328124,8.892064965820312,29.61235294117647
2025-10-20T14:34:18.593115,-3.4580152671755724,-0.183206106870229,1.5954198473282444,-0.3854664672851562,-2.0638018310546875,9.327809667968749,29.61235294117647
2025-10-20T14:34:18.614430,-4.4961832061068705,0.6183206106870229,0.08396946564885496,-0.3591302490234375,-2.2457611572265623,9.181763366699219,29.706470588235295
2025-10-20T14:34:18.637944,-2.3282442748091605,0.6030534351145038,2.1755725190839694,-0.3232172241210937,-1.8626888916015625,8.568847741699217,29.000588235294117
2025-10-20T14:34:18.655316,0.7251908396946565,0.8473282442748091,2.480916030534351,-0.46686932373046874,-1.9871873779296874,9.394847314453125,29.61235294117647
2025-10-20T14:34:18.675693,3.8396946564885495,0.8396946564885496,2.8625954198473282,-0.21787235107421873,-1.6041151123046875,9.100360510253905,29.61235294117647
2025-10-20T14:34:18.698688,1.6564885496183206,0.7480916030534351,3.5267175572519083,-0.06943184814453125,-1.4939818359375,9.804255798339844,29.61235294117647
2025-10-20T14:34:18.717311,1.5114503816793894,0.9236641221374046,3.9083969465648853,-0.1388636962890625,-1.8842367065429686,9.26316622314453,29.56529411764706
2025-10-20T14:34:18.736250,1.7099236641221374,0.21374045801526717,4.2748091603053435,-0.28730419921875,-1.4772224243164063,8.781931689453124,29.659411764705883
2025-10-20T14:34:18.758552,0.9847328244274809,1.0,4.7251908396946565,-0.3064578125,-1.5227122558593749,9.399635717773437,29.61235294117647
2025-10-20T14:34:18.778044,-1.816793893129771,1.8778625954198473,4.740458015267175,-0.16759411621093748,-1.158793603515625,9.390058911132812,29.706470588235295
2025-10-20T14:34:18.796167,-4.068702290076335,2.183206106870229,4.641221374045801,-0.17956512451171874,-1.189918225097656,9.651026892089844,29.659411764705883
2025-10-20T14:34:18.818564,-8.435114503816793,3.6106870229007635,4.33587786259542,-0.5506663818359374,-1.37906015625,9.337386474609374,29.61235294117647
2025-10-20T14:34:18.839320,-10.221374045801527,2.7557251908396947,3.8625954198473282,-0.35673604736328124,-1.4772224243164063,8.633491186523438,29.61235294117647
2025-10-20T14:34:18.856244,-11.091603053435115,1.9541984732824427,2.7786259541984735,-0.02633621826171875,-1.43652099609375,9.423577734375,30.36529411764706
2025-10-20T14:34:18.878486,-10.534351145038167,2.7022900763358777,1.9770992366412214,-0.22744915771484372,-1.7357962036132812,8.935160595703124,29.706470588235295
2025-10-20T14:34:18.900609,-10.900763358778626,2.213740458015267,1.16793893129771,0.3016694091796875,-1.9321207397460936,9.03332286376953,29.706470588235295
2025-10-20T14:34:18.917518,-9.091603053435115,1.633587786259542,0.48091603053435117,0.23223756103515625,-2.094926452636719,8.59997236328125,29.659411764705883
2025-10-20T14:34:18.939668,-7.3893129770992365,0.7938931297709924,0.1297709923664122,0.6105214233398437,-2.1356278808593747,8.930372192382812,29.659411764705883
2025-10-20T14:34:18.962341,-4.33587786259542,1.1145038167938932,-0.13740458015267176,0.6919242797851562,-1.9416975463867185,8.456320263671875,29.56529411764706
2025-10-20T14:34:18.979263,-4.717557251908397,0.5114503816793893,0.4351145038167939,0.8762778076171874,-1.9129671264648436,9.117119921875,29.61235294117647
2025-10-20T14:34:19.001569,-4.824427480916031,0.7633587786259542,1.0458015267175573,0.6440402465820312,-1.467645617675781,9.272743029785156,29.659411764705883
2025-10-20T14:34:19.024572,-6.938931297709924,-0.48854961832061067,1.7328244274809161,0.5506663818359374,-1.2306196533203124,9.344569079589844,29.56529411764706
2025-10-20T14:34:19.041521,-8.938931297709924,-0.4122137404580153,2.3435114503816794,0.28490999755859375,-1.189918225097656,9.203311181640624,29.61235294117647
2025-10-20T14:34:19.063741,-12.32824427480916,-0.2595419847328244,2.9770992366412212,0.086191259765625,-1.4149731811523436,9.344569079589844,29.56529411764706
2025-10-20T14:34:19.087056,-16.801526717557252,1.6870229007633588,3.6106870229007635,-0.08858546142578125,-1.1563994018554686,9.330203869628905,29.61235294117647
2025-10-20T14:34:19.103971,-20.30534351145038,0.2595419847328244,3.6030534351145036,-0.1867477294921875,-1.7884686401367187,9.153032946777342,29.659411764705883
2025-10-20T14:34:19.125516,-21.412213740458014,0.6564885496183206,3.16793893129771,-0.5602431884765625,-1.7357962036132812,8.961496813964843,29.706470588235295
2025-10-20T14:34:19.148665,-21.137404580152673,0.32061068702290074,2.404580152671756,-0.14604630126953125,-2.094926452636719,8.88009395751953,29.56529411764706
2025-10-20T14:34:19.165665,-19.709923664122137,0.22900763358778625,1.6106870229007633,-0.15562310791015624,-2.2553379638671873,8.47786807861328,29.659411764705883
2025-10-20T14:34:19.186854,-18.129770992366414,1.8854961832061068,1.3511450381679388,0.047884033203124995,-2.300827795410156,8.547299926757812,29.000588235294117
2025-10-20T14:34:19.209884,-14.030534351145038,-1.5954198473282444,1.0763358778625953,0.05027823486328125,-2.607285607910156,8.367734802246094,29.706470588235295
2025-10-20T14:34:19.226810,-7.854961832061068,-2.045801526717557,0.6946564885496184,-0.0430956298828125,-2.971204260253906,7.812280017089844,29.659411764705883
2025-10-20T14:34:19.247604,-3.2213740458015265,-3.572519083969466,0.4580152671755725,0.08379705810546874,-3.1651345947265623,8.386888415527343,29.61235294117647
2025-10-20T14:34:19.270714,2.16793893129771,-5.221374045801527,0.9236641221374046,0.02154781494140625,-2.940079638671875,8.817844714355468,29.659411764705883
2025-10-20T14:34:19.288511,10.366412213740459,-4.908396946564886,1.7404580152671756,0.08140285644531249,-3.1794998046874996,8.95670841064453,29.61235294117647
2025-10-20T14:34:19.308513,14.427480916030534,-6.022900763358779,2.8625954198473282,0.13168109130859373,-3.095702746582031,8.47786807861328,29.51823529411765
2025-10-20T14:34:19.331311,19.045801526717558,-4.908396946564886,3.6793893129770994,-0.34715924072265625,-3.1172505615234374,9.093177905273437,29.56529411764706
2025-10-20T14:34:19.350379,25.19083969465649,-5.702290076335878,4.015267175572519,-0.4213794921875,-2.8227637573242186,8.827421520996094,29.659411764705883
2025-10-20T14:34:19.368891,29.358778625954198,-5.259541984732825,4.221374045801527,-0.3447650390625,-2.1595698974609374,9.184157568359375,29.706470588235295
2025-10-20T14:34:19.391335,31.64885496183206,-5.9541984732824424,4.8396946564885495,-0.5698199951171875,-2.0302830078125,9.770736975097655,29.706470588235295
2025-10-20T14:34:19.413135,31.641221374045802,-5.419847328244275,5.603053435114504,-0.7015010864257812,-2.152387292480469,8.999804040527343,29.61235294117647
2025-10-20T14:34:19.430947,27.885496183206108,-2.732824427480916,5.900763358778626,-1.0342951171875,-2.1835119140624997,8.774749084472656,29.56529411764706
2025-10-20T14:34:19.453245,26.541984732824428,-4.061068702290076,6.396946564885496,-1.7597382202148437,-1.5825672973632812,8.185775476074218,29.61235294117647
2025-10-20T14:34:19.474052,24.84732824427481,-6.0,5.526717557251908,-0.8164227661132812,-0.3280056274414062,9.526528405761718,29.706470588235295
2025-10-20T14:34:19.490938,22.870229007633586,-6.908396946564886,5.290076335877862,-0.9624690673828125,-0.5027823486328125,10.529698901367187,29.000588235294117
2025-10-20T14:34:19.512968,17.96946564885496,-5.2748091603053435,4.091603053435114,-0.0718260498046875,-0.201112939453125,9.588777648925781,29.61235294117647
2025-10-20T14:34:19.534646,14.106870229007633,-3.4732824427480917,3.4732824427480917,-0.4740519287109375,-0.8044517578125,9.234435803222656,29.61235294117647
2025-10-20T14:34:19.551676,7.236641221374046,-3.5419847328244276,2.8931297709923665,0.06943184814453125,-1.0319009155273438,9.605537060546874,29.61235294117647
2025-10-20T14:34:19.573814,7.717557251908397,-2.900763358778626,2.4656488549618323,0.39264907226562495,-0.26336218261718747,9.868899243164062,29.659411764705883
2025-10-20T14:34:19.596365,1.6488549618320612,-2.2977099236641223,2.351145038167939,0.5027823486328125,0.33039982910156246,10.108319409179687,29.61235294117647
2025-10-20T14:34:19.613339,-4.870229007633588,0.25190839694656486,2.885496183206107,0.4381389038085937,0.07900865478515624,9.555258825683593,29.706470588235295
2025-10-20T14:34:19.635597,-11.183206106870228,0.061068702290076333,2.954198473282443,0.7637503295898437,-0.23223756103515625,10.04846436767578,29.706470588235295
2025-10-20T14:34:19.659181,-14.854961832061068,1.2061068702290076,2.2061068702290076,-0.8020575561523438,0.565031591796875,9.375693701171874,29.706470588235295
2025-10-20T14:34:19.676077,-12.633587786259541,-0.015267175572519083,0.9923664122137404,-0.5626373901367188,-1.668758557128906,9.074024291992187,29.659411764705883
2025-10-20T14:34:19.696851,-14.572519083969466,1.5038167938931297,-0.2824427480916031,-0.4333505004882812,-1.3311761230468748,9.528922607421874,29.659411764705883
2025-10-20T14:34:19.719745,-12.870229007633588,1.0763358778625953,-1.633587786259542,0.0383072265625,-1.1827356201171875,9.248801013183593,29.659411764705883
2025-10-20T14:34:19.737506,-9.625954198473282,1.297709923664122,-2.763358778625954,-0.22026655273437498,-1.467645617675781,8.726865051269531,29.659411764705883
2025-10-20T14:34:19.757313,-7.862595419847328,1.786259541984733,-3.0839694656488548,-0.19153613281249998,-1.4987702392578124,8.544905725097657,29.659411764705883
2025-10-20T14:34:19.779871,-4.916030534351145,2.030534351145038,-3.1603053435114505,-0.04548983154296875,-0.9816226806640624,8.614337573242187,29.706470588235295
2025-10-20T14:34:19.798489,-3.198473282442748,2.366412213740458,-2.83206106870229,-0.03591302490234375,-0.8906430175781249,9.53131680908203,29.56529411764706
2025-10-20T14:34:19.817375,-4.900763358778626,2.931297709923664,-2.435114503816794,-0.23223756103515625,-1.0869675537109373,9.090783703613281,29.659411764705883
2025-10-20T14:34:19.839907,-6.893129770992366,3.1068702290076335,-1.9694656488549618,-0.22744915771484372,-0.9624690673828125,9.062053283691405,29.659411764705883
2025-10-20T14:34:19.859868,-7.221374045801527,2.6030534351145036,-1.9389312977099236,-0.4572925170898437,-1.5466542724609373,8.865728747558594,29.659411764705883
2025-10-20T14:34:19.877477,-5.66412213740458,1.1450381679389312,-2.045801526717557,-0.23223756103515625,-1.6400281372070311,9.227253198242186,29.706470588235295
2025-10-20T14:34:19.899458,-5.809160305343512,0.816793893129771,-2.2977099236641223,-0.1867477294921875,-1.7429788085937499,9.203311181640624,29.61235294117647
2025-10-20T14:34:19.920275,-1.4198473282442747,-0.6564885496183206,-2.3053435114503817,-0.009576806640625,-1.8650830932617186,9.176974963378905,29.659411764705883
2025-10-20T14:34:19.937140,0.15267175572519084,3.8396946564885495,-2.2290076335877864,0.00718260498046875,-2.059013427734375,9.129090930175781,29.706470588235295
2025-10-20T14:34:19.959410,2.717557251908397,1.3969465648854962,-2.2290076335877864,-0.0526724365234375,-2.039859814453125,8.437166650390624,29.706470588235295
2025-10-20T14:34:19.981610,7.625954198473282,0.3282442748091603,-2.8702290076335877,0.603338818359375,-1.8004396484374998,8.949525805664061,29.61235294117647
2025-10-20T14:34:19.998547,13.419847328244275,0.183206106870229,-3.648854961832061,0.17238251953125,-1.9632453613281249,8.789114294433594,29.61235294117647
2025-10-20T14:34:20.020517,18.18320610687023,0.7404580152671756,-4.641221374045801,-0.22266075439453123,-1.9776105712890624,9.184157568359375,29.61235294117647
2025-10-20T14:34:20.043101,22.297709923664122,-0.8931297709923665,-5.091603053435114,0.33039982910156246,-1.7334020019531249,8.729259252929687,29.659411764705883
2025-10-20T14:34:20.060063,26.458015267175572,-0.6335877862595419,-5.2748091603053435,0.6871358764648438,-0.6512228515624999,8.987833032226561,29.659411764705883
2025-10-20T14:34:20.082164,31.16793893129771,0.9618320610687023,-5.633587786259542,-0.08858546142578125,-0.14604630126953125,9.593566052246093,29.706470588235295
2025-10-20T14:34:20.105486,18.916030534351144,1.8473282442748091,-3.572519083969466,-0.39983167724609375,-0.6512228515624999,9.880870251464843,29.659411764705883
2025-10-20T14:34:20.122406,8.610687022900763,0.1984732824427481,-2.2061068702290076,-0.5961562133789062,-0.229843359375,8.90643017578125,29.61235294117647
2025-10-20T14:34:20.144354,3.854961832061069,0.40458015267175573,-1.5877862595419847,-0.5770026000976562,-0.3447650390625,9.763554370117188,29.61235294117647
2025-10-20T14:34:20.167565,-5.152671755725191,-0.08396946564885496,-1.4427480916030535,-0.689530078125,-0.8810662109374999,9.217676391601563,29.56529411764706
2025-10-20T14:34:20.184456,-9.396946564885496,-1.2290076335877862,-3.8473282442748094,-0.9528922607421875,-0.7637503295898437,9.277531433105468,29.706470588235295
2025-10-20T14:34:20.206025,-13.458015267175572,-1.1374045801526718,-2.3282442748091605,-0.5626373901367188,-1.1827356201171875,9.957484704589843,29.56529411764706
2025-10-20T14:34:20.229167,-19.27480916030534,0.7022900763358778,-2.801526717557252,0.2537853759765625,-1.6256629272460936,9.236830004882812,29.61235294117647
2025-10-20T14:34:20.246466,-20.862595419847327,1.9694656488549618,-3.2595419847328246,-0.18914193115234373,-1.7549498168945312,9.452308154296874,29.659411764705883
2025-10-20T14:34:20.269315,-20.12213740458015,4.763358778625954,-4.061068702290076,0.028730419921875,-1.4149731811523436,9.311050256347656,29.61235294117647
2025-10-20T14:34:20.292762,-16.12213740458015,3.9618320610687023,-4.961832061068702,-1.0271125122070313,-1.7094599853515624,8.590395556640624,29.706470588235295
2025-10-20T14:34:20.309682,-9.511450381679388,1.8396946564885497,-5.541984732824427,0.16519991455078123,-1.6903063720703124,9.739612353515625,29.000588235294117
2025-10-20T14:34:20.331267,-7.564885496183206,5.0,-5.961832061068702,-0.3399766357421875,-1.1516109985351561,8.98304462890625,29.51823529411765
2025-10-20T14:34:20.354431,-3.33587786259542,0.37404580152671757,-5.145038167938932,-0.086191259765625,-1.6041151123046875,9.418789331054686,29.61235294117647
2025-10-20T14:34:20.371509,-0.3511450381679389,0.8396946564885496,-4.061068702290076,0.28730419921875,-1.1372457885742187,8.825027319335938,29.61235294117647
2025-10-20T14:34:20.392345,-0.6564885496183206,-0.6412213740458015,-2.5877862595419847,-0.3758896606445312,-0.699106884765625,9.421183532714844,29.659411764705883
2025-10-20T14:34:20.415296,-2.7099236641221376,-0.7709923664122137,-1.633587786259542,-0.08140285644531249,-1.0582371337890624,9.710881933593749,29.706470588235295
2025-10-20T14:34:20.433233,-5.694656488549619,-1.5267175572519085,-0.9541984732824428,-0.181959326171875,-0.9097966308593749,9.478644372558593,29.56529411764706
2025-10-20T14:34:20.453201,-6.221374045801527,-1.3969465648854962,-0.4961832061068702,-0.37828386230468747,-1.4891934326171874,9.660603698730467,29.61235294117647
2025-10-20T14:34:20.475854,-9.648854961832061,-0.5954198473282443,-0.44274809160305345,0.009576806640625,-1.1180921752929687,9.526528405761718,29.706470588235295
2025-10-20T14:34:20.494614,-6.4961832061068705,0.2900763358778626,-0.2824427480916031,-0.22505495605468748,-1.6112977172851561,9.737218151855469,29.706470588235295
2025-10-20T14:34:20.513624,-5.900763358778626,2.183206106870229,-0.6106870229007634,-0.6536170532226562,-2.1308394775390624,8.793902697753905,29.659411764705883
2025-10-20T14:34:20.536120,-5.374045801526718,2.068702290076336,-1.4045801526717556,-0.7589619262695312,-2.3487118286132813,8.511386901855468,29.56529411764706
2025-10-20T14:34:20.555585,-4.251908396946565,0.3511450381679389,-1.748091603053435,0.1771709228515625,-1.2880804931640624,8.975862023925782,29.659411764705883
2025-10-20T14:34:20.573569,3.122137404580153,1.5190839694656488,-2.312977099236641,-0.20829554443359374,-1.458068811035156,9.564835632324218,29.61235294117647
2025-10-20T14:34:20.595802,3.618320610687023,-1.3435114503816794,-2.3893129770992365,-0.16759411621093748,-1.1348515869140625,9.464279162597656,29.56529411764706
2025-10-20T14:34:20.616556,-0.48854961832061067,0.5572519083969466,-1.916030534351145,0.13407529296874998,-1.2928688964843749,9.294290844726563,29.659411764705883
2025-10-20T14:34:20.633444,-1.1755725190839694,-0.5954198473282443,-1.5190839694656488,0.2346317626953125,-1.0917559570312498,8.889670764160156,29.706470588235295
2025-10-20T14:34:20.655429,-2.404580152671756,-3.717557251908397,-1.0,0.5602431884765625,-1.5298948608398437,10.024522351074218,29.61235294117647
2025-10-20T14:34:20.677602,-9.183206106870228,-0.8549618320610687,-0.022900763358778626,0.8858546142578124,-1.0630255371093749,9.320627062988281,29.61235294117647
2025-10-20T14:34:20.694493,-18.076335877862597,1.5038167938931297,1.2061068702290076,0.354341845703125,-0.19393033447265623,9.852139831542969,29.56529411764706
2025-10-20T14:34:20.716445,-21.297709923664122,0.5725190839694656,2.2061068702290076,0.6081272216796875,-0.45010991210937495,10.673351000976561,29.471176470588237
2025-10-20T14:34:20.739802,-24.129770992366414,3.8244274809160306,2.0381679389312977,0.3806780639648437,-0.01915361328125,9.421183532714844,29.659411764705883
2025-10-20T14:34:20.756723,-24.641221374045802,1.1526717557251909,1.1221374045801527,0.18435352783203124,-0.5363011718749999,10.534487304687499,29.706470588235295
2025-10-20T14:34:20.778027,-24.65648854961832,3.83206106870229,-0.04580152671755725,-0.28012159423828126,-1.5227122558593749,9.222464794921875,29.56529411764706
2025-10-20T14:34:20.801029,-22.50381679389313,7.083969465648855,-1.16793893129771,-0.6296750366210937,-2.3918074584960936,8.487444885253906,29.56529411764706
2025-10-20T14:34:20.817929,-17.14503816793893,3.564885496183206,-2.3282442748091605,-0.5027823486328125,-1.936909143066406,9.0021982421875,29.61235294117647
2025-10-20T14:34:20.838417,-15.267175572519085,3.6717557251908395,-2.9923664122137406,0.14125789794921875,-1.7956512451171873,8.82263311767578,29.706470588235295
2025-10-20T14:34:20.861126,-11.213740458015268,2.9083969465648853,-3.3282442748091605,0.0047884033203125,-1.6927005737304686,8.231265307617187,29.61235294117647
2025-10-20T14:34:20.878861,-8.259541984732824,2.053435114503817,-3.2900763358778624,0.00239420166015625,-1.5131354492187499,8.329427575683594,29.706470588235295
2025-10-20T14:34:20.898569,-7.183206106870229,0.9847328244274809,-3.045801526717557,0.7206546997070312,-1.2785036865234374,8.75320126953125,29.61235294117647
2025-10-20T14:34:20.920938,-7.374045801526718,0.8854961832061069,-2.572519083969466,0.3112462158203125,-1.4053963745117186,8.975862023925782,30.412352941176472
2025-10-20T14:34:20.939516,-11.694656488549619,1.7633587786259541,-1.6030534351145038,0.181959326171875,-2.437297290039062,8.930372192382812,29.61235294117647
2025-10-20T14:34:20.958363,-14.297709923664122,2.50381679389313,-1.1984732824427482,-0.016759411621093748,-2.0542250244140625,8.614337573242187,29.51823529411765
2025-10-20T14:34:20.980493,-19.267175572519083,2.3893129770992365,-0.8778625954198473,0.40222587890625,-1.2425906616210938,9.299079248046874,29.61235294117647
2025-10-20T14:34:20.999959,-18.137404580152673,2.9236641221374047,-1.1221374045801527,-0.39983167724609375,-1.946485949707031,8.858546142578124,29.61235294117647
2025-10-20T14:34:21.017906,-18.18320610687023,2.366412213740458,-1.0610687022900764,0.05027823486328125,-1.5825672973632812,9.572018237304688,29.61235294117647
2025-10-20T14:34:21.039816,-21.740458015267176,5.7251908396946565,-0.5725190839694656,-0.74699091796875,-2.123656872558594,8.686163623046875,29.659411764705883
2025-10-20T14:34:21.060084,-21.022900763358777,4.236641221374046,-1.3435114503816794,-0.6440402465820312,-2.068590234375,8.262389929199218,29.61235294117647
2025-10-20T14:34:21.077167,-17.595419847328245,5.824427480916031,-1.9389312977099236,-0.1388636962890625,-2.1619640991210938,8.93755479736328,29.706470588235295
2025-10-20T14:34:21.099174,-16.908396946564885,4.0,-2.7022900763358777,-0.6296750366210937,-2.3032219970703123,7.81467421875,29.659411764705883
2025-10-20T14:34:21.120736,-12.748091603053435,2.572519083969466,-3.5267175572519083,-0.6823474731445313,-2.0661960327148434,8.623914379882812,29.56529411764706
2025-10-20T14:34:21.137609,-11.01526717557252,2.4885496183206106,-3.6106870229007635,-0.4165910888671875,-2.389413256835937,8.655039001464843,29.61235294117647
2025-10-20T14:34:21.159393,-6.732824427480916,0.549618320610687,-5.847328244274809,-0.05746083984375,-2.3822306518554686,8.530540515136718,29.56529411764706
2025-10-20T14:34:21.181807,-4.732824427480916,-1.8015267175572518,-3.2061068702290076,-0.3184288208007812,-2.1978771240234374,9.009380847167968,29.56529411764706
2025-10-20T14:34:21.198676,-4.961832061068702,0.05343511450381679,-2.877862595419847,-0.39264907226562495,-1.9919757812499999,8.197746484375,29.659411764705883
2025-10-20T14:34:21.220788,-4.572519083969466,-0.3435114503816794,-2.4732824427480917,-0.1771709228515625,-2.0542250244140625,9.299079248046874,29.51823529411765
2025-10-20T14:34:21.243856,-6.221374045801527,1.16793893129771,-2.1374045801526718,-0.09337386474609374,-1.905784521484375,9.452308154296874,29.706470588235295
2025-10-20T14:34:21.260816,-6.465648854961832,0.5267175572519084,-2.0839694656488548,-0.2825157958984375,-1.9201497314453124,8.889670764160156,29.659411764705883
2025-10-20T14:34:21.282086,-7.786259541984733,1.3969465648854962,-3.8702290076335877,0.1197100830078125,-2.0566192260742184,9.435548742675781,29.61235294117647
2025-10-20T14:34:21.305360,-7.862595419847328,2.2595419847328246,-1.6106870229007633,-0.1197100830078125,-2.81558115234375,9.76116016845703,29.56529411764706
2025-10-20T14:34:21.322677,-11.885496183206106,3.8702290076335877,-1.015267175572519,-0.39264907226562495,-2.7533319091796873,9.622296472167967,29.56529411764706
2025-10-20T14:34:21.342987,-13.030534351145038,2.0610687022900764,-0.5114503816793893,-0.5698199951171875,-2.750937707519531,9.495403784179686,29.706470588235295
2025-10-20T14:34:21.365509,-13.091603053435115,1.1450381679389312,0.015267175572519083,-0.4261678955078125,-2.906560815429687,9.337386474609374,29.56529411764706
2025-10-20T14:34:21.383675,-13.15267175572519,1.1526717557251909,0.5114503816793893,-0.6488286499023437,-2.482787121582031,9.591171850585937,29.61235294117647
2025-10-20T14:34:21.402911,-14.251908396946565,2.2595419847328246,1.0381679389312977,-0.38307226562499996,-2.7581203125,9.121908325195312,29.61235294117647
2025-10-20T14:34:21.425238,-14.603053435114504,1.7633587786259541,1.549618320610687,-0.24181436767578124,-2.6001030029296874,9.289502441406249,29.659411764705883
2025-10-20T14:34:21.444264,-15.099236641221374,2.0763358778625953,1.7099236641221374,-0.2657563842773437,-2.7724855224609373,9.02135185546875,29.56529411764706
2025-10-20T14:34:21.462616,-14.282442748091603,0.7251908396946565,1.916030534351145,-0.2705447875976562,-3.1220389648437497,8.760383874511719,29.61235294117647
2025-10-20T14:34:21.484604,-11.977099236641221,0.7099236641221374,0.0916030534351145,-0.11013327636718749,-3.019088293457031,8.961496813964843,29.61235294117647
2025-10-20T14:34:21.504467,-10.34351145038168,0.3816793893129771,2.0381679389312977,0.28012159423828126,-3.0430303100585934,8.86094034423828,29.56529411764706
2025-10-20T14:34:21.522148,-10.129770992366412,1.8778625954198473,2.0229007633587788,-0.12210428466796874,-3.1196447631835937,8.798691101074219,29.659411764705883
2025-10-20T14:34:21.544033,-10.603053435114504,0.8015267175572519,2.5114503816793894,-0.14604630126953125,-3.1483751831054687,8.789114294433594,29.706470588235295
2025-10-20T14:34:21.564769,-9.946564885496183,0.5038167938931297,3.0610687022900764,-0.05746083984375,-3.306392492675781,8.389282617187499,29.000588235294117
2025-10-20T14:34:21.581767,-6.847328244274809,-0.6259541984732825,3.2213740458015265,-0.047884033203124995,-3.289633081054687,8.456320263671875,29.706470588235295
2025-10-20T14:34:21.603633,-5.603053435114504,-0.32061068702290074,3.1908396946564888,0.08858546142578125,-3.287238879394531,8.621520178222656,29.61235294117647
2025-10-20T14:34:21.625217,-0.061068702290076333,-0.7557251908396947,5.809160305343512,0.0383072265625,-3.2249896362304686,8.786720092773438,29.51823529411765
2025-10-20T14:34:21.642181,-2.519083969465649,-0.7633587786259542,4.358778625954199,-0.36152445068359373,-3.31357509765625,8.690952026367187,29.61235294117647
2025-10-20T14:34:21.663993,-2.045801526717557,-1.0687022900763359,4.786259541984733,-0.36391865234375,-2.779668127441406,8.652644799804687,29.000588235294117
2025-10-20T14:34:21.686510,-1.7099236641221374,-1.9083969465648856,4.900763358778626,-0.7398083129882812,-3.23696064453125,8.894459167480468,29.61235294117647
2025-10-20T14:34:21.703411,-1.5648854961832062,-2.717557251908397,5.427480916030534,-0.49799394531249996,-3.1076737548828124,8.93755479736328,29.56529411764706
2025-10-20T14:34:21.725604,-2.9389312977099236,-1.6793893129770991,5.763358778625954,-0.4908113403320312,-3.2058360229492187,8.762778076171875,29.659411764705883
2025-10-20T14:34:21.748908,-5.305343511450381,-1.7938931297709924,6.282442748091603,-0.5865794067382812,-2.849099975585937,9.179369165039063,29.61235294117647
2025-10-20T14:34:21.765823,-6.732824427480916,-0.7786259541984732,6.145038167938932,-0.55545478515625,-2.877830395507812,8.760383874511719,29.659411764705883
2025-10-20T14:34:21.786640,-8.427480916030534,-0.7786259541984732,5.977099236641221,-0.6296750366210937,-2.4564509033203126,9.085995300292968,29.706470588235295
2025-10-20T14:34:21.809431,-7.8320610687022905,-1.8091603053435115,5.564885496183206,-0.6823474731445313,-2.913743420410156,9.1554271484375,29.56529411764706
2025-10-20T14:34:21.826734,-11.50381679389313,1.1068702290076335,5.442748091603053,-0.6655880615234374,-2.710236279296875,8.722076647949219,29.56529411764706
2025-10-20T14:34:21.846776,-12.900763358778626,3.7251908396946565,5.267175572519084,-0.612915625,-3.019088293457031,9.081206896972656,29.61235294117647
2025-10-20T14:34:21.869249,-11.251908396946565,0.6259541984732825,5.1603053435114505,-0.4213794921875,-3.775656018066406,8.817844714355468,29.706470588235295
2025-10-20T14:34:21.887400,-10.648854961832061,3.877862595419847,5.114503816793893,-0.3854664672851562,-3.189076611328125,8.93755479736328,29.659411764705883
2025-10-20T14:34:21.906649,-9.335877862595419,2.7786259541984735,5.183206106870229,-0.105344873046875,-3.5314474487304683,8.398859423828124,29.659411764705883
2025-10-20T14:34:21.929230,-6.587786259541985,3.2213740458015265,5.175572519083969,0.11731588134765625,-3.8283284545898435,8.916006982421875,29.706470588235295
2025-10-20T14:34:21.948666,-3.7251908396946565,3.4885496183206106,5.068702290076335,-0.28730419921875,-3.6008792968749996,8.142679846191406,29.51823529411765
2025-10-20T14:34:21.966646,2.3435114503816794,3.7404580152671754,4.106870229007634,-0.17238251953125,-4.048595007324218,7.955932116699218,29.706470588235295
2025-10-20T14:34:21.988594,8.870229007633588,4.297709923664122,2.946564885496183,-0.38786066894531246,-3.3686417358398435,8.358157995605469,29.706470588235295
2025-10-20T14:34:22.009021,12.84732824427481,5.564885496183206,1.816793893129771,-0.1388636962890625,-2.925714428710937,8.528146313476562,29.61235294117647
2025-10-20T14:34:22.026293,11.725190839694656,5.404580152671755,0.42748091603053434,-0.59376201171875,-2.269703173828125,8.449137658691406,29.61235294117647
2025-10-20T14:34:22.048631,12.694656488549619,5.0458015267175576,-0.7862595419847328,-0.49799394531249996,-2.3343466186523436,8.939948999023438,29.659411764705883
2025-10-20T14:34:22.070378,12.335877862595419,5.267175572519084,-2.183206106870229,-0.7876923461914062,-2.8706477905273435,8.470685473632813,29.659411764705883
2025-10-20T14:34:22.087292,11.900763358778626,5.099236641221374,-3.450381679389313,-0.9720458740234375,-2.4396914916992185,8.722076647949219,29.659411764705883
2025-10-20T14:34:22.109485,8.13740458015267,5.282442748091603,-4.549618320610687,-0.29927520751953124,-2.2170307373046874,9.332598071289063,29.61235294117647
2025-10-20T14:34:22.132112,0.8854961832061069,5.236641221374046,-3.946564885496183,-0.3232172241210937,-2.3415292236328122,9.524134204101562,29.61235294117647
2025-10-20T14:34:22.149023,-6.580152671755725,5.145038167938932,-7.083969465648855,-0.7541735229492187,-2.4444798950195312,9.418789331054686,29.706470588235295
2025-10-20T14:34:22.171180,-9.16793893129771,4.038167938931298,-8.053435114503817,-0.488417138671875,-2.844311572265625,8.734047656249999,29.659411764705883
2025-10-20T14:34:22.194275,-10.595419847328245,6.1679389312977095,-8.98473282442748,-0.6655880615234374,-3.0741549316406247,9.02135185546875,29.61235294117647
2025-10-20T14:34:22.211181,-13.748091603053435,6.465648854961832,-9.351145038167939,-0.1580173095703125,-3.201047619628906,9.433154541015625,29.61235294117647
2025-10-20T14:34:22.233421,-15.297709923664122,6.931297709923665,-9.213740458015268,0.11731588134765625,-3.6272155151367187,8.95670841064453,29.61235294117647
2025-10-20T14:34:22.256838,-17.53435114503817,5.396946564885496,-8.595419847328245,0.15322890625,-4.316745593261719,8.125920434570313,29.706470588235295
2025-10-20T14:34:22.273764,-15.587786259541986,5.786259541984733,-7.603053435114504,-0.5698199951171875,-4.333505004882812,9.028534460449219,29.61235294117647
2025-10-20T14:34:22.295442,-13.473282442748092,2.068702290076336,-6.755725190839694,-0.8164227661132812,-4.319139794921875,8.228871105957031,29.61235294117647
2025-10-20T14:34:22.318688,-10.572519083969466,0.6183206106870229,-5.366412213740458,-0.3136404174804687,-4.314351391601562,7.568071447753906,29.61235294117647
2025-10-20T14:34:22.335593,-7.152671755725191,-0.45038167938931295,-3.984732824427481,-1.189918225097656,-4.510675927734375,8.571241943359375,29.659411764705883
2025-10-20T14:34:22.356542,-4.709923664122138,-2.8244274809160306,-2.6030534351145036,-1.0271125122070313,-4.070142822265625,8.28633194580078,29.659411764705883
2025-10-20T14:34:22.379603,-1.0305343511450382,-3.2442748091603053,-1.5954198473282444,-1.0414777221679687,-3.9049429077148434,7.999027746582031,29.61235294117647
2025-10-20T14:34:22.396924,2.7099236641221376,-3.7022900763358777,-0.5877862595419847,-1.189918225097656,-3.8666356811523435,8.391676818847655,29.56529411764706
2025-10-20T14:34:22.417446,8.221374045801527,-4.6183206106870225,-0.07633587786259542,-0.9624690673828125,-3.603273498535156,8.0062103515625,29.659411764705883
2025-10-20T14:34:22.440303,12.030534351145038,-4.977099236641221,0.7251908396946565,-0.9959878906249999,-3.2249896362304686,9.138667736816405,29.659411764705883
2025-10-20T14:34:22.458084,12.099236641221374,-4.175572519083969,0.5648854961832062,-0.9097966308593749,-3.086125939941406,8.341398583984375,29.659411764705883
2025-10-20T14:34:22.478275,15.65648854961832,-5.687022900763359,0.37404580152671757,-0.354341845703125,-2.6527754394531247,8.602366564941406,29.61235294117647
2025-10-20T14:34:22.501220,17.30534351145038,-7.0534351145038165,0.6183206106870229,-0.3232172241210937,-2.5737667846679684,9.30147344970703,29.56529411764706
2025-10-20T14:34:22.519454,16.33587786259542,-8.183206106870228,0.35877862595419846,-0.7565677246093749,-2.501940734863281,8.750807067871094,29.659411764705883
2025-10-20T14:34:22.539186,14.969465648854962,-8.206106870229007,0.48854961832061067,-0.2442085693359375,-2.499546533203125,8.904035974121093,29.56529411764706
2025-10-20T14:34:22.561903,12.763358778625955,-7.374045801526718,0.6335877862595419,-0.33518823242187495,-2.770091320800781,9.469067565917967,29.56529411764706
2025-10-20T14:34:22.580603,13.17557251908397,-8.625954198473282,1.0763358778625953,-0.47644613037109373,-2.2936451904296873,9.153032946777342,29.706470588235295
2025-10-20T14:34:22.601308,11.526717557251908,-8.061068702290076,1.9389312977099236,-0.3399766357421875,-2.4564509033203126,9.777919580078125,29.61235294117647
2025-10-20T14:34:22.625948,10.534351145038167,-7.374045801526718,2.6717557251908395,-0.6631938598632812,-2.9185318237304685,8.659827404785156,29.61235294117647
2025-10-20T14:34:22.645481,10.045801526717558,-7.236641221374046,3.5419847328244276,-0.44532150878906246,-2.887407202148437,9.284714038085937,29.659411764705883
2025-10-20T14:34:22.663852,9.305343511450381,-6.099236641221374,4.206106870229007,-0.39264907226562495,-2.5426421630859375,9.074024291992187,29.51823529411765
2025-10-20T14:34:22.686352,10.80916030534351,-6.824427480916031,4.32824427480916,-0.47644613037109373,-2.722207287597656,8.540117321777343,29.61235294117647
2025-10-20T14:34:22.706293,12.458015267175572,-6.458015267175573,4.33587786259542,-0.9744400756835937,-2.9975404785156248,8.250418920898436,29.706470588235295
2025-10-20T14:34:22.724264,15.923664122137405,-6.206106870229007,4.129770992366412,-0.7709329345703124,-2.703053674316406,8.67658681640625,29.659411764705883
2025-10-20T14:34:22.746233,17.938931297709924,-5.66412213740458,4.030534351145038,-1.1276689819335937,-2.5426421630859375,8.755595471191405,29.706470588235295
2025-10-20T14:34:22.766692,19.83969465648855,-4.5038167938931295,3.366412213740458,-0.9121908325195311,-2.0638018310546875,8.566453540039062,29.56529411764706
2025-10-20T14:34:22.784348,22.00763358778626,-4.129770992366412,2.2748091603053435,-0.7876923461914062,-2.114080065917969,8.530540515136718,29.000588235294117
2025-10-20T14:34:22.806340,23.984732824427482,-4.480916030534351,0.8549618320610687,-0.40462008056640625,-2.04943662109375,8.303091357421874,29.659411764705883
2025-10-20T14:34:22.827169,28.099236641221374,-4.198473282442748,-0.5038167938931297,-0.18914193115234373,-1.697488977050781,9.270348828125,29.706470588235295
2025-10-20T14:34:22.844065,25.85496183206107,-1.6946564885496183,-1.5267175572519085,-0.93852705078125,-1.6711527587890624,8.765172277832031,29.659411764705883
2025-10-20T14:34:22.866133,19.984732824427482,-3.6717557251908395,-1.7404580152671756,-0.1580173095703125,-2.901772412109375,8.492233288574218,29.61235294117647
2025-10-20T14:34:22.888157,15.244274809160306,-2.045801526717557,-5.748091603053435,-0.0383072265625,-0.46208092041015625,8.341398583984375,29.659411764705883
2025-10-20T14:34:22.905076,15.267175572519085,0.16030534351145037,-4.770992366412214,-0.1771709228515625,-2.6384102294921874,7.9655089233398435,29.61235294117647
2025-10-20T14:34:22.927088,17.778625954198475,-0.7786259541984732,-6.717557251908397,0.6607996582031249,-3.347093920898437,7.9272016967773435,29.61235294117647
2025-10-20T14:34:22.950265,14.541984732824428,0.6259541984732825,-9.045801526717558,-0.7637503295898437,-2.4157494750976563,7.208941198730468,29.706470588235295
2025-10-20T14:34:22.967175,14.641221374045802,7.572519083969466,-9.954198473282442,0.086191259765625,-1.3263877197265623,9.303867651367186,29.659411764705883
2025-10-20T14:34:22.988360,11.290076335877863,3.0381679389312977,-11.412213740458014,-0.5913678100585937,-0.7230489013671875,8.24802471923828,29.659411764705883
2025-10-20T14:34:23.011550,6.534351145038168,3.7022900763358777,-12.114503816793894,0.36631285400390623,-1.4341267944335936,8.942343200683593,29.659411764705883
2025-10-20T14:34:23.028882,9.198473282442748,3.6259541984732824,-13.65648854961832,0.09816226806640624,-1.4317325927734375,8.659827404785156,29.706470588235295
2025-10-20T14:34:23.048954,9.67175572519084,3.3053435114503817,-13.381679389312977,0.40222587890625,-1.9967641845703124,8.693346228027343,29.61235294117647
2025-10-20T14:34:23.071863,4.816793893129771,3.366412213740458,-12.534351145038167,0.04548983154296875,-1.637633935546875,8.896853369140624,29.706470588235295
2025-10-20T14:34:23.090131,-1.9465648854961832,1.1221374045801527,-10.091603053435115,0.10295067138671875,-0.9097966308593749,9.74200655517578,29.61235294117647
2025-10-20T14:34:23.109626,-8.854961832061068,1.702290076335878,-7.977099236641221,-0.26815058593749996,-1.5275006591796874,9.787496386718749,30.459411764705884
2025-10-20T14:34:23.132358,-11.931297709923664,1.9923664122137406,-6.633587786259542,-0.12449848632812499,-1.7980454467773437,8.607154968261717,29.706470588235295
2025-10-20T14:34:23.151910,-14.335877862595419,1.8015267175572518,-5.343511450381679,0.23223756103515625,-1.9608511596679685,8.805873706054687,29.000588235294117
2025-10-20T14:34:23.170033,-16.267175572519083,2.564885496183206,-4.404580152671755,-0.28012159423828126,-1.848323681640625,9.504980590820312,29.61235294117647
2025-10-20T14:34:23.192135,-18.557251908396946,3.0076335877862594,-3.0381679389312977,0.20829554443359374,-1.8914193115234375,10.04846436767578,29.706470588235295
2025-10-20T14:34:23.212690,-20.022900763358777,1.5114503816793894,-2.2519083969465647,0.20350714111328125,-2.1691467041015624,8.291120349121094,29.51823529411765
2025-10-20T14:34:23.229863,-10.900763358778626,3.5877862595419847,-2.045801526717557,0.41419688720703124,-2.310404602050781,9.143456140136719,29.56529411764706
2025-10-20T14:34:23.251929,-3.030534351145038,1.3435114503816794,-1.2366412213740459,0.258573779296875,-2.731784094238281,9.143456140136719,29.61235294117647
2025-10-20T14:34:23.273670,3.1908396946564888,2.931297709923664,-0.8396946564885496,-0.047884033203124995,-2.6575638427734374,9.770736975097655,29.659411764705883
2025-10-20T14:34:23.290530,11.725190839694656,-0.2824427480916031,-0.4732824427480916,-0.3902548706054687,-2.2074539306640624,9.490615380859374,29.659411764705883
2025-10-20T14:34:23.312562,19.30534351145038,-2.0610687022900764,0.07633587786259542,0.16041151123046873,-2.128445275878906,8.602366564941406,29.61235294117647
2025-10-20T14:34:23.335186,29.404580152671755,-5.473282442748092,0.35877862595419846,0.34237083740234375,-1.8148048583984373,7.936778503417968,29.659411764705883
2025-10-20T14:34:23.352053,42.83206106870229,-6.755725190839694,0.030534351145038167,0.6703764648437499,-1.1851298217773436,8.271966735839843,29.51823529411765
2025-10-20T14:34:23.374239,46.2442748091603,-8.770992366412214,-0.5648854961832062,2.0063409912109376,-0.469263525390625,9.366116894531249,29.706470588235295
2025-10-20T14:34:23.397520,43.847328244274806,-9.732824427480915,-0.9312977099236641,0.2705447875976562,-0.5003881469726562,9.639055883789062,29.659411764705883
2025-10-20T14:34:23.414377,42.93893129770992,-10.381679389312977,-1.916030534351145,-0.9265560424804687,0.7685387329101562,10.697293017578124,29.706470588235295
2025-10-20T14:34:23.435434,41.19847328244275,-10.267175572519085,-2.4198473282442747,-1.4939818359375,-0.3711012573242187,10.658985791015624,29.61235294117647
2025-10-20T14:34:23.458471,39.656488549618324,-11.709923664122137,-1.5725190839694656,-1.9105729248046874,-0.3591302490234375,10.551246716308594,29.659411764705883
2025-10-20T14:34:23.475784,36.25954198473283,-11.419847328244275,-0.6030534351145038,-1.3120225097656248,-0.06943184814453125,10.82179150390625,29.51823529411765
2025-10-20T14:34:23.495966,32.44274809160305,-9.022900763358779,0.6106870229007634,-0.9935936889648437,-0.6775590698242188,10.079588989257813,29.56529411764706
2025-10-20T14:34:23.518691,32.954198473282446,-8.13740458015267,1.183206106870229,-0.6727706665039062,-1.4149731811523436,9.085995300292968,29.000588235294117
2025-10-20T14:34:23.536875,37.98473282442748,-8.01526717557252,1.2366412213740459,-0.1197100830078125,-1.2952630981445312,9.5001921875,29.56529411764706
2025-10-20T14:34:23.556260,43.85496183206107,-5.580152671755725,1.6412213740458015,-0.41898529052734373,-0.411802685546875,9.629479077148437,29.61235294117647
2025-10-20T14:34:23.578732,46.80916030534351,-6.091603053435114,2.816793893129771,-0.5865794067382812,0.016759411621093748,9.366116894531249,29.51823529411765
2025-10-20T14:34:23.597786,49.030534351145036,-6.641221374045801,4.351145038167939,-0.21068974609375,0.36152445068359373,9.351751684570312,29.56529411764706
2025-10-20T14:34:23.616297,51.51145038167939,-8.549618320610687,5.374045801526718,0.51714755859375,1.0749965454101562,9.648632690429688,29.000588235294117
2025-10-20T14:34:23.638859,54.33587786259542,-8.603053435114504,5.679389312977099,0.43574470214843747,2.0542250244140625,9.641450085449218,29.61235294117647
2025-10-20T14:34:23.658782,52.282442748091604,-8.854961832061068,5.99236641221374,0.737414111328125,2.6408044311523438,9.610325463867188,30.412352941176472
2025-10-20T14:34:23.676654,45.86259541984733,-8.221374045801527,6.6183206106870225,1.1228805786132812,3.4524387939453125,9.897629663085937,29.706470588235295
2025-10-20T14:34:23.698630,38.2442748091603,-6.236641221374046,6.442748091603053,0.8283937744140625,3.373430139160156,10.223241088867187,29.706470588235295
2025-10-20T14:34:23.719005,27.938931297709924,-3.5572519083969465,6.343511450381679,0.469263525390625,2.8514941772460936,10.290278735351562,29.706470588235295
2025-10-20T14:34:23.736510,18.610687022900763,-1.8702290076335877,5.793893129770993,0.36631285400390623,2.1452046874999997,9.931148486328125,29.61235294117647
2025-10-20T14:34:23.758675,13.129770992366412,3.16793893129771,4.67175572519084,0.201112939453125,1.9776105712890624,9.591171850585937,29.659411764705883
2025-10-20T14:34:23.779978,6.297709923664122,5.297709923664122,3.33587786259542,-0.06943184814453125,1.419761584472656,10.036493359375,29.706470588235295
2025-10-20T14:34:23.796892,2.763358778625954,4.0458015267175576,1.4198473282442747,-0.076614453125,1.3359645263671873,9.153032946777342,29.659411764705883
2025-10-20T14:34:23.819066,1.2671755725190839,5.076335877862595,-0.26717557251908397,0.239420166015625,0.7733271362304687,9.042899670410156,29.659411764705883
2025-10-20T14:34:23.840766,1.465648854961832,6.1603053435114505,-1.5648854961832062,-0.22026655273437498,-0.20350714111328125,8.128314636230469,29.659411764705883
2025-10-20T14:34:23.857676,3.7099236641221376,4.641221374045801,-2.969465648854962,0.076614453125,-0.4381389038085937,8.40125362548828,29.706470588235295
2025-10-20T14:34:23.879762,6.8396946564885495,4.893129770992366,-4.32824427480916,0.1197100830078125,-0.07422025146484375,8.67658681640625,29.659411764705883
2025-10-20T14:34:23.901890,7.893129770992366,4.015267175572519,-6.0458015267175576,0.7206546997070312,1.0606313354492187,8.497021691894531,29.61235294117647
2025-10-20T14:34:23.918786,7.366412213740458,2.068702290076336,-7.152671755725191,0.5985504150390625,1.9943699829101562,8.690952026367187,29.706470588235295
2025-10-20T14:34:23.941016,4.244274809160306,5.687022900763359,-9.572519083969466,0.3184288208007812,2.901772412109375,8.755595471191405,29.706470588235295
2025-10-20T14:34:23.963686,-7.106870229007634,4.648854961832061,-6.877862595419847,0.45968671875,3.268085266113281,9.318232861328125,29.706470588235295
2025-10-20T14:34:23.980566,-19.923664122137403,8.045801526717558,-5.030534351145038,0.4070142822265625,2.7198130859375,8.94473740234375,29.659411764705883
2025-10-20T14:34:24.002907,-29.31297709923664,8.213740458015268,-3.114503816793893,-0.143652099609375,1.927332336425781,8.865728747558594,29.61235294117647
2025-10-20T14:34:24.026269,-37.44274809160305,8.50381679389313,-1.2748091603053435,0.44532150878906246,1.2210428466796874,8.585607153320312,29.659411764705883
2025-10-20T14:34:24.043134,-41.94656488549618,7.2748091603053435,0.08396946564885496,0.39743747558593745,1.3383587280273437,7.723694555664062,29.706470588235295
2025-10-20T14:34:24.064506,-42.62595419847328,6.580152671755725,1.6030534351145038,0.9816226806640624,2.269703173828125,9.689334118652344,29.659411764705883
2025-10-20T14:34:24.087950,-38.86259541984733,4.32824427480916,3.564885496183206,0.14125789794921875,1.2042834350585936,7.335833886718749,29.659411764705883
2025-10-20T14:34:24.105295,-30.66412213740458,1.3740458015267176,4.969465648854962,0.5027823486328125,-0.5410895751953124,9.737218151855469,29.51823529411765
2025-10-20T14:34:24.125749,-25.870229007633586,0.19083969465648856,5.152671755725191,-0.14125789794921875,-1.7022773803710936,7.371746911621093,29.61235294117647
2025-10-20T14:34:24.148741,-11.358778625954198,-2.4656488549618323,4.7251908396946565,0.7565677246093749,-1.1348515869140625,8.935160595703124,29.659411764705883
2025-10-20T14:34:24.167392,-1.0763358778625953,0.816793893129771,4.312977099236641,0.3854664672851562,-0.5363011718749999,8.674192614746094,29.706470588235295
2025-10-20T14:34:24.186417,6.908396946564886,-2.9160305343511452,1.9541984732824427,0.3591302490234375,0.49799394531249996,8.588001354980468,29.51823529411765
2025-10-20T14:34:24.209199,14.114503816793894,-3.7099236641221376,3.381679389312977,-0.5770026000976562,1.024718310546875,9.701305126953125,29.000588235294117
2025-10-20T14:34:24.228747,16.885496183206108,-0.6717557251908397,4.022900763358779,-0.43574470214843747,1.3168109130859373,8.204929089355469,29.659411764705883
2025-10-20T14:34:24.246952,19.81679389312977,-3.564885496183206,4.091603053435114,0.4285620971679687,0.948103857421875,9.30147344970703,29.659411764705883
2025-10-20T14:34:24.269382,24.31297709923664,-0.9847328244274809,4.549618320610687,-0.7134720947265625,2.1356278808593747,8.889670764160156,29.659411764705883
2025-10-20T14:34:24.290251,21.99236641221374,-3.1526717557251906,4.702290076335878,-0.4644751220703125,1.7693150268554687,10.196904870605469,29.706470588235295
2025-10-20T14:34:24.307168,17.66412213740458,-6.847328244274809,5.374045801526718,0.239420166015625,2.540247961425781,10.486603271484375,29.659411764705883
2025-10-20T14:34:24.329274,11.274809160305344,-4.465648854961832,6.732824427480916,0.39743747558593745,2.2361843505859373,10.359710583496094,29.61235294117647
2025-10-20T14:34:24.351012,6.259541984732825,-5.908396946564886,7.900763358778626,0.16041151123046873,2.4492682983398435,9.938331091308592,29.659411764705883
2025-10-20T14:34:24.367895,2.3435114503816794,-3.687022900763359,8.694656488549619,0.03591302490234375,1.484405029296875,9.490615380859374,29.706470588235295
2025-10-20T14:34:24.390060,3.2900763358778624,-3.946564885496183,8.687022900763358,0.24181436767578124,1.0271125122070313,9.627084875488281,29.659411764705883
2025-10-20T14:34:24.412700,5.374045801526718,-3.9618320610687023,7.816793893129771,0.7900865478515624,0.928950244140625,9.603142858886718,29.659411764705883
2025-10-20T14:34:24.429589,12.419847328244275,-3.1908396946564888,6.709923664122138,0.97683427734375,0.63206923828125,9.720458740234374,29.61235294117647
2025-10-20T14:34:24.451845,18.14503816793893,-1.6259541984732824,5.244274809160306,0.28012159423828126,0.7038952880859375,9.234435803222656,29.61235294117647
2025-10-20T14:34:24.475186,25.221374045801525,-2.2595419847328246,3.381679389312977,0.16280571289062498,1.20667763671875,9.200916979980468,29.51823529411765
2025-10-20T14:34:24.492064,31.435114503816795,-1.9465648854961832,2.213740458015267,-0.5913678100585937,-0.718260498046875,8.954314208984375,29.659411764705883
2025-10-20T14:34:24.513221,33.79389312977099,-0.13740458015267176,2.16793893129771,0.1867477294921875,0.3950432739257812,9.557653027343749,29.51823529411765
2025-10-20T14:34:24.536270,43.17557251908397,-1.1526717557251909,3.946564885496183,-1.2569558715820313,-0.21308394775390624,9.437942944335937,29.56529411764706
2025-10-20T14:34:24.553616,43.80916030534351,-5.068702290076335,4.526717557251908,-0.4333505004882812,1.3527239379882812,10.565611926269531,29.61235294117647
2025-10-20T14:34:24.573979,42.717557251908396,-6.908396946564886,4.862595419847328,-0.9552864624023437,3.1220389648437497,10.510545288085936,29.471176470588237
2025-10-20T14:34:24.596821,41.36641221374046,-5.931297709923665,4.061068702290076,-1.3335703247070312,4.774038110351563,9.988609326171874,29.61235294117647
2025-10-20T14:34:24.614571,40.725190839694655,-8.259541984732824,3.5801526717557253,-0.2537853759765625,5.379771130371093,9.035717065429687,29.61235294117647
2025-10-20T14:34:24.634452,36.70229007633588,-6.251908396946565,4.068702290076335,1.5227122558593749,4.797980126953124,9.057264880371093,29.000588235294117
2025-10-20T14:34:24.657398,27.916030534351144,-2.0076335877862594,4.816793893129771,2.518700146484375,3.8379052612304685,9.904812268066406,29.706470588235295
2025-10-20T14:34:24.676509,16.580152671755727,2.0839694656488548,5.6106870229007635,2.142810485839844,3.4907460205078125,9.91438907470703,29.61235294117647
2025-10-20T14:34:24.695025,6.763358778625954,6.175572519083969,5.679389312977099,0.4955997436523437,2.8993782104492185,9.334992272949219,29.61235294117647
2025-10-20T14:34:24.717263,1.5190839694656488,8.442748091603054,4.343511450381679,0.1005564697265625,3.0526071166992184,8.98304462890625,29.659411764705883
2025-10-20T14:34:24.737246,0.916030534351145,9.572519083969466,3.0,0.2705447875976562,3.294421484375,9.131485131835937,29.659411764705883
2025-10-20T14:34:24.754871,-1.0916030534351144,9.351145038167939,1.4122137404580153,-0.8690952026367187,3.303998291015625,9.404424121093749,30.459411764705884
2025-10-20T14:34:24.777256,-6.908396946564886,8.229007633587786,0.061068702290076333,-0.8020575561523438,2.408566870117187,8.846575134277343,30.459411764705884
2025-10-20T14:34:24.798134,-8.335877862595419,5.473282442748092,-0.8778625954198473,-0.40940848388671874,1.0271125122070313,7.690175732421874,29.659411764705883
2025-10-20T14:34:24.815015,-5.977099236641221,4.427480916030534,-0.9618320610687023,-0.5243301635742187,1.7357962036132812,7.580042456054687,29.61235294117647
2025-10-20T14:34:24.837319,-7.755725190839694,0.5190839694656488,-0.4580152671755725,-0.7661445312499999,0.9097966308593749,7.45075556640625,29.659411764705883
2025-10-20T14:34:24.859568,-2.984732824427481,1.6488549618320612,-2.2213740458015265,-0.5961562133789062,0.37828386230468747,7.687781530761718,29.000588235294117
2025-10-20T14:34:24.876470,-2.282442748091603,-0.183206106870229,-2.435114503816794,0.12210428466796874,2.5953145996093747,8.717288244628906,29.61235294117647
2025-10-20T14:34:24.898507,-3.0381679389312977,-0.17557251908396945,-1.3053435114503817,1.2808978881835937,2.9831752685546875,8.192958081054687,29.659411764705883
2025-10-20T14:34:24.921657,-0.5343511450381679,3.2519083969465647,-1.8396946564885497,2.760514514160156,3.294421484375,8.583212951660157,29.659411764705883
2025-10-20T14:34:24.938552,-8.335877862595419,3.6564885496183206,-1.702290076335878,2.9855694702148434,2.6815058593749996,8.37012900390625,29.61235294117647
2025-10-20T14:34:24.960357,-13.427480916030534,5.351145038167939,-1.0687022900763359,2.29843359375,3.6583401367187496,7.860164050292968,29.706470588235295
2025-10-20T14:34:24.983665,-23.03053435114504,5.435114503816794,-0.08396946564885496,1.3958195678710936,3.366247534179687,8.207323291015625,29.659411764705883
2025-10-20T14:34:25.000552,-33.13740458015267,3.9389312977099236,-0.5343511450381679,1.35990654296875,2.789244934082031,8.762778076171875,30.36529411764706
2025-10-20T14:34:25.021429,-36.396946564885496,2.763358778625954,-0.05343511450381679,0.6775590698242188,2.817975354003906,9.265560424804686,29.659411764705883
2025-10-20T14:34:25.044659,-45.99236641221374,-0.8244274809160306,-3.7022900763358777,-0.028730419921875,3.5482068603515624,9.859322436523437,29.706470588235295
2025-10-20T14:34:25.062420,-55.48091603053435,-0.25190839694656486,-4.770992366412214,-0.17238251953125,2.7174188842773437,8.80347950439453,29.61235294117647
2025-10-20T14:34:25.082295,-60.97709923664122,1.633587786259542,-5.679389312977099,0.2609679809570312,1.0941501586914062,9.255983618164063,29.56529411764706
2025-10-20T14:34:25.105102,-61.458015267175576,-0.7633587786259542,-6.114503816793893,0.6272808349609375,1.1827356201171875,9.821015209960937,29.61235294117647
2025-10-20T14:34:25.123761,-61.099236641221374,4.435114503816794,-6.7251908396946565,-0.45968671875,1.908178723144531,9.6917283203125,29.000588235294117
2025-10-20T14:34:25.142769,-63.045801526717554,4.572519083969466,-6.244274809160306,-0.7805097412109374,1.9225439331054686,7.843404638671874,29.659411764705883
2025-10-20T14:34:25.165592,-60.030534351145036,5.022900763358779,-6.244274809160306,0.6200982299804687,1.1252747802734375,9.004592443847656,29.61235294117647
2025-10-20T14:34:25.185113,-51.62595419847328,8.458015267175572,-5.648854961832061,0.8810662109374999,0.09337386474609374,8.8872765625,29.659411764705883
2025-10-20T14:34:25.203234,-43.0763358778626,8.206106870229007,-4.374045801526718,0.689530078125,0.10295067138671875,8.959102612304687,29.61235294117647
2025-10-20T14:34:25.225706,-35.31297709923664,6.374045801526718,-3.2748091603053435,-0.07422025146484375,0.7038952880859375,8.927977990722656,29.706470588235295
2025-10-20T14:34:25.246683,-26.450381679389313,4.938931297709924,-1.6564885496183206,-0.6631938598632812,0.0047884033203125,9.196128576660156,29.61235294117647
2025-10-20T14:34:25.265150,-18.38167938931298,-1.3053435114503817,-0.09923664122137404,1.0462661254882812,-1.5179238525390624,9.208099584960937,29.61235294117647
2025-10-20T14:34:25.287424,-10.900763358778626,-1.1068702290076335,1.1984732824427482,-0.2609679809570312,-0.488417138671875,8.734047656249999,29.706470588235295
2025-10-20T14:34:25.307422,-2.0076335877862594,-0.7404580152671756,2.7709923664122136,0.01915361328125,0.01915361328125,9.689334118652344,29.659411764705883
2025-10-20T14:34:25.325402,5.32824427480916,-2.954198473282443,5.396946564885496,0.6344634399414062,-0.28730419921875,8.997409838867187,30.36529411764706
2025-10-20T14:34:25.347631,9.17557251908397,-2.0763358778625953,7.290076335877862,0.28969840087890625,0.6440402465820312,9.34696328125,29.56529411764706
2025-10-20T14:34:25.368368,11.282442748091603,-2.7557251908396947,9.236641221374045,-0.3136404174804687,0.5051765502929687,9.375693701171874,29.659411764705883
2025-10-20T14:34:25.385523,12.916030534351146,-1.702290076335878,11.053435114503817,-0.0718260498046875,0.8259995727539062,9.789890588378906,30.459411764705884
2025-10-20T14:34:25.407377,15.206106870229007,-0.7251908396946565,12.648854961832061,-0.8212111694335937,0.9313444458007812,9.306261853027344,29.659411764705883
2025-10-20T14:34:25.429386,15.50381679389313,-0.7099236641221374,13.725190839694656,-0.5291185668945312,1.2210428466796874,9.351751684570312,29.706470588235295
2025-10-20T14:34:25.446293,12.687022900763358,-0.030534351145038167,14.687022900763358,-0.354341845703125,0.8259995727539062,10.09395419921875,29.659411764705883
2025-10-20T14:34:25.468362,12.045801526717558,0.16793893129770993,14.595419847328245,-0.26336218261718747,1.0175357055664063,9.488221179199218,29.61235294117647
2025-10-20T14:34:25.491245,9.916030534351146,0.549618320610687,14.236641221374045,-0.15562310791015624,1.2018892333984375,9.600748657226562,29.706470588235295
2025-10-20T14:34:25.508163,6.419847328244275,-2.4885496183206106,13.572519083969466,-0.12449848632812499,1.2521674682617188,9.631873278808593,29.659411764705883
2025-10-20T14:34:25.529897,3.16793893129771,-2.0763358778625953,12.931297709923664,0.143652099609375,1.70467158203125,9.708487731933593,29.659411764705883
2025-10-20T14:34:25.552884,1.3893129770992367,-5.076335877862595,12.381679389312977,0.2657563842773437,1.6831237670898436,9.548076220703125,29.61235294117647
2025-10-20T14:34:25.569777,1.0305343511450382,-6.824427480916031,11.816793893129772,0.47644613037109373,1.2880804931640624,9.411606726074218,29.659411764705883
2025-10-20T14:34:25.590551,-0.10687022900763359,-4.9465648854961835,10.786259541984732,0.42377369384765623,1.4221557861328125,9.404424121093749,29.61235294117647
2025-10-20T14:34:25.613531,0.5725190839694656,-2.030534351145038,9.198473282442748,0.0143652099609375,1.2761094848632812,9.107543115234375,29.61235294117647
2025-10-20T14:34:25.631717,2.030534351145038,-2.2442748091603053,7.587786259541985,0.17238251953125,1.3646949462890625,9.133879333496093,29.61235294117647
2025-10-20T14:34:25.651124,3.435114503816794,-0.5419847328244275,6.099236641221374,-0.4381389038085937,1.4867992309570313,9.241618408203124,29.659411764705883
2025-10-20T14:34:25.673703,3.687022900763359,-0.6946564885496184,4.908396946564886,-0.07900865478515624,1.0558429321289062,9.797073193359374,29.706470588235295
2025-10-20T14:34:25.692749,2.5343511450381677,1.4198473282442747,3.633587786259542,-0.7422025146484375,1.5227122558593749,9.289502441406249,29.56529411764706
2025-10-20T14:34:25.711176,1.6412213740458015,-1.1755725190839694,2.1755725190839694,-0.6344634399414062,1.5729904907226562,9.332598071289063,29.04764705882353
2025-10-20T14:34:25.733459,2.4427480916030535,-2.351145038167939,0.8015267175572519,0.02154781494140625,1.197100830078125,8.971073620605468,29.659411764705883
2025-10-20T14:34:25.753757,-0.7633587786259542,-0.31297709923664124,0.15267175572519084,0.04548983154296875,1.8052280517578123,8.904035974121093,29.61235294117647
2025-10-20T14:34:25.770854,-1.534351145038168,-3.633587786259542,-1.183206106870229,0.612915625,1.8243816650390623,9.643844287109374,30.459411764705884
2025-10-20T14:34:25.792955,1.7633587786259541,0.08396946564885496,-2.5877862595419847,0.15083470458984374,2.080561242675781,8.78432589111328,29.61235294117647
2025-10-20T14:34:25.814705,-4.702290076335878,0.2366412213740458,-3.4732824427480917,0.33518823242187495,2.2266075439453124,8.93755479736328,29.706470588235295
2025-10-20T14:34:25.831616,-3.931297709923664,1.5877862595419847,-4.847328244274809,0.4572925170898437,1.5251064575195312,8.671798413085938,29.659411764705883
2025-10-20T14:34:25.853434,-1.6259541984732824,1.3893129770992367,-6.8320610687022905,-0.06464344482421874,1.6424223388671875,9.169792358398437,29.61235294117647
2025-10-20T14:34:25.876102,-2.6717557251908395,3.6717557251908395,-7.442748091603053,-0.1292868896484375,1.1563994018554686,9.495403784179686,29.706470588235295
2025-10-20T14:34:25.893024,-2.33587786259542,4.557251908396947,-9.206106870229007,-0.5793968017578125,1.5179238525390624,8.240842114257813,29.61235294117647
2025-10-20T14:34:25.915847,-0.5648854961832062,1.8625954198473282,-10.17557251908397,0.23223756103515625,0.37828386230468747,8.525752111816406,29.659411764705883
2025-10-20T14:34:25.938997,2.3893129770992365,3.8625954198473282,-11.908396946564885,-0.1867477294921875,1.2952630981445312,8.535328918457031,29.659411764705883
2025-10-20T14:34:25.955905,6.0534351145038165,2.8702290076335877,-13.381679389312977,0.14125789794921875,1.0821791503906248,9.119514123535156,29.706470588235295
2025-10-20T14:34:25.976851,5.450381679389313,4.015267175572519,-13.564885496183207,-0.258573779296875,0.6943184814453125,8.671798413085938,29.61235294117647
2025-10-20T14:34:25.999913,8.648854961832061,2.5343511450381677,-14.83206106870229,0.26815058593749996,1.0558429321289062,9.093177905273437,29.659411764705883
2025-10-20T14:34:26.017655,9.458015267175572,3.816793893129771,-15.022900763358779,0.3854664672851562,1.216254443359375,9.409212524414063,29.706470588235295
2025-10-20T14:34:26.037466,6.801526717557252,3.7938931297709924,-14.755725190839694,0.277727392578125,1.5753846923828123,8.95670841064453,29.659411764705883
2025-10-20T14:34:26.060142,6.435114503816794,3.282442748091603,-14.335877862595419,0.6488286499023437,1.1611878051757811,9.095572106933593,29.659411764705883
2025-10-20T14:34:26.079154,4.763358778625954,3.2519083969465647,-13.564885496183207,0.6943184814453125,0.9169792358398436,9.282319836425781,29.61235294117647
2025-10-20T14:34:26.097534,5.816793893129771,3.4885496183206106,-12.725190839694656,0.8403647827148437,0.5339069702148437,9.016563452148437,30.459411764705884
2025-10-20T14:34:26.119805,2.8396946564885495,4.3893129770992365,-12.076335877862595,0.5602431884765625,0.5482721801757812,9.603142858886718,29.659411764705883
2025-10-20T14:34:26.140096,1.183206106870229,4.702290076335878,-11.15267175572519,0.3711012573242187,1.0007762939453124,9.181763366699219,29.61235294117647
2025-10-20T14:34:26.157208,1.8625954198473282,3.5801526717557253,-10.297709923664122,0.3136404174804687,0.488417138671875,9.26316622314453,29.659411764705883
2025-10-20T14:34:26.179184,2.0763358778625953,2.381679389312977,-9.274809160305344,0.36152445068359373,0.5003881469726562,9.0788126953125,29.659411764705883
2025-10-20T14:34:26.200759,2.2977099236641223,2.595419847328244,-7.847328244274809,0.5746083984375,0.5746083984375,9.272743029785156,29.61235294117647
2025-10-20T14:34:26.217637,2.480916030534351,0.6946564885496184,-6.106870229007634,0.3806780639648437,0.5865794067382812,9.236830004882812,29.659411764705883
2025-10-20T14:34:26.239511,2.1755725190839694,0.44274809160305345,-4.206106870229007,0.23702596435546874,0.6081272216796875,9.239224206542968,29.706470588235295
2025-10-20T14:34:26.262576,3.4427480916030535,-0.6183206106870229,-3.8625954198473282,0.24660277099609373,0.5315127685546874,9.282319836425781,29.659411764705883
2025-10-20T14:34:26.279462,4.908396946564886,-1.1145038167938932,0.1984732824427481,0.19393033447265623,0.40222587890625,9.181763366699219,29.61235294117647
2025-10-20T14:34:26.301215,6.267175572519084,-1.5572519083969465,0.022900763358778626,0.24181436767578124,0.51714755859375,9.404424121093749,29.61235294117647
2025-10-20T14:34:26.324380,6.564885496183206,-1.1221374045801527,3.946564885496183,0.201112939453125,0.8283937744140625,9.102754711914063,29.61235294117647
2025-10-20T14:34:26.341234,7.473282442748092,-3.3740458015267176,3.946564885496183,0.2753331909179687,1.20667763671875,9.749189160156249,29.659411764705883
2025-10-20T14:34:26.362689,11.633587786259541,-1.4274809160305344,7.1679389312977095,-0.05746083984375,1.7717092285156248,9.79946739501953,29.659411764705883
2025-10-20T14:34:26.385678,10.297709923664122,-2.7557251908396947,8.648854961832061,-0.011971008300781249,1.2713210815429687,9.287108239746093,29.706470588235295
2025-10-20T14:34:26.402525,10.229007633587786,-3.648854961832061,9.740458015267176,-0.06464344482421874,1.5298948608398437,9.83777462158203,29.61235294117647
2025-10-20T14:34:26.423092,8.511450381679388,-2.900763358778626,9.748091603053435,-0.4429273071289062,2.4253262817382812,9.840168823242188,29.659411764705883
2025-10-20T14:34:26.445742,6.030534351145038,-4.358778625954199,10.099236641221374,-0.5961562133789062,2.6958710693359373,10.146626635742187,29.659411764705883
2025-10-20T14:34:26.463438,7.633587786259542,-3.053435114503817,9.793893129770993,0.0383072265625,2.2266075439453124,10.065223779296874,29.706470588235295
2025-10-20T14:34:26.483107,7.404580152671755,-4.282442748091603,8.702290076335878,-0.031124621582031248,2.243366955566406,9.507374792480467,29.61235294117647
2025-10-20T14:34:26.505476,6.290076335877862,-4.480916030534351,6.450381679389313,0.05746083984375,2.205059729003906,9.406818322753905,29.706470588235295
2025-10-20T14:34:26.524028,6.8396946564885495,-3.0381679389312977,3.366412213740458,-0.1197100830078125,2.104503259277344,9.428366137695312,29.706470588235295
2025-10-20T14:34:26.542819,6.7251908396946565,-3.0229007633587788,0.48854961832061067,0.16519991455078123,2.31758720703125,9.320627062988281,29.659411764705883
2025-10-20T14:34:26.564879,7.129770992366412,-2.2442748091603053,-1.6412213740458015,0.17238251953125,2.0063409912109376,9.3086560546875,29.706470588235295
2025-10-20T14:34:26.584305,10.213740458015268,-1.5572519083969465,-1.984732824427481,0.22266075439453123,2.1021090576171875,8.884882360839843,29.659411764705883
2025-10-20T14:34:26.602313,10.358778625954198,-1.4351145038167938,-5.66412213740458,0.34237083740234375,2.2194249389648437,9.296685046386719,29.659411764705883
2025-10-20T14:34:26.624163,10.641221374045802,-0.7557251908396947,-6.854961832061068,0.07422025146484375,2.389413256835937,9.14824454345703,30.459411764705884
2025-10-20T14:34:26.644505,10.748091603053435,-1.0458015267175573,-8.32824427480916,0.33039982910156246,2.3056161987304686,8.923189587402343,29.706470588235295
2025-10-20T14:34:26.661968,11.488549618320612,-2.2595419847328246,-9.916030534351146,0.4908113403320312,2.5713725830078125,8.796296899414061,29.000588235294117
2025-10-20T14:34:26.683734,12.65648854961832,-0.5267175572519084,-11.129770992366412,0.3447650390625,2.7844565307617186,8.705317236328124,29.51823529411765
2025-10-20T14:34:26.704454,11.50381679389313,-0.7557251908396947,-12.16030534351145,0.201112939453125,3.0358477050781247,8.896853369140624,29.61235294117647
2025-10-20T14:34:26.721391,9.13740458015267,-1.213740458015267,-12.816793893129772,0.373495458984375,2.24097275390625,8.621520178222656,29.56529411764706
2025-10-20T14:34:26.743271,9.648854961832061,0.17557251908396945,-13.374045801526718,0.4261678955078125,2.3343466186523436,8.564059338378906,29.56529411764706
2025-10-20T14:34:26.764914,5.396946564885496,0.3893129770992366,-13.435114503816793,0.3591302490234375,2.2577321655273437,8.59278975830078,29.56529411764706
2025-10-20T14:34:26.781868,3.122137404580153,0.7022900763358778,-13.19083969465649,0.25139117431640623,2.1739351074218747,8.90643017578125,30.36529411764706
2025-10-20T14:34:26.803884,0.37404580152671757,1.2671755725190839,-12.908396946564885,0.16041151123046873,2.327164013671875,9.1554271484375,29.659411764705883
2025-10-20T14:34:26.826752,-2.4732824427480917,2.366412213740458,-12.938931297709924,0.023942016601562498,2.7150246826171873,8.702923034667968,29.61235294117647
2025-10-20T14:34:26.843713,-5.916030534351145,2.33587786259542,-12.427480916030534,0.1292868896484375,2.5258827514648434,9.026140258789061,30.36529411764706
2025-10-20T14:34:26.865215,-8.49618320610687,1.8549618320610688,-12.007633587786259,0.39264907226562495,2.422932080078125,9.038111267089842,29.706470588235295
2025-10-20T14:34:26.888195,-13.114503816793894,2.198473282442748,-11.633587786259541,0.3447650390625,1.905784521484375,8.25520732421875,29.659411764705883
2025-10-20T14:34:26.905123,-15.374045801526718,1.3969465648854962,-10.908396946564885,0.04548983154296875,1.68551796875,8.786720092773438,29.61235294117647
2025-10-20T14:34:26.925695,-19.0,2.732824427480916,-10.038167938931299,0.02633621826171875,1.9728221679687499,8.547299926757812,29.659411764705883
2025-10-20T14:34:26.948374,-19.6793893129771,-1.5801526717557253,-9.83206106870229,-0.05985504150390625,1.3431471313476562,8.643067993164061,29.56529411764706
2025-10-20T14:34:26.966149,-16.83206106870229,1.8854961832061068,-9.549618320610687,0.16041151123046873,1.637633935546875,8.125920434570313,29.000588235294117
2025-10-20T14:34:26.985898,-16.740458015267176,0.1450381679389313,-9.67175572519084,0.1005564697265625,2.013523596191406,9.016563452148437,29.61235294117647
2025-10-20T14:34:27.008582,-18.15267175572519,-0.7709923664122137,-9.251908396946565,0.22744915771484372,2.04943662109375,8.757989672851561,29.706470588235295
2025-10-20T14:34:27.027603,-12.022900763358779,1.0229007633587786,-8.755725190839694,0.1580173095703125,1.7645266235351562,8.43956085205078,29.61235294117647
2025-10-20T14:34:27.046066,-10.114503816793894,0.08396946564885496,-9.748091603053435,0.0383072265625,1.0342951171875,8.329427575683594,29.61235294117647
2025-10-20T14:34:27.068360,-10.610687022900763,-0.33587786259541985,-6.969465648854962,0.1005564697265625,1.448492004394531,8.717288244628906,29.56529411764706
2025-10-20T14:34:27.088664,-3.8625954198473282,0.7786259541984732,-6.786259541984733,-0.49799394531249996,1.656787548828125,8.858546142578124,29.61235294117647
2025-10-20T14:34:27.105773,2.7480916030534353,-1.7709923664122138,-5.190839694656488,-0.5434837768554687,0.9121908325195311,8.544905725097657,29.706470588235295
2025-10-20T14:34:27.127648,3.7099236641221376,1.0687022900763359,-4.748091603053435,0.2920926025390625,1.649604943847656,9.172186560058593,29.706470588235295
2025-10-20T14:34:27.149245,3.4198473282442747,-1.0229007633587786,-3.16793893129771,-0.469263525390625,1.0630255371093749,8.279149340820313,29.000588235294117
2025-10-20T14:34:27.166169,2.9923664122137406,-2.595419847328244,-1.4809160305343512,0.11731588134765625,2.205059729003906,9.3852705078125,29.706470588235295
2025-10-20T14:34:27.188506,3.2595419847328246,-0.4198473282442748,0.007633587786259542,-0.40940848388671874,2.3678654418945313,9.366116894531249,29.61235294117647
2025-10-20T14:34:27.211543,-2.3435114503816794,-1.7099236641221374,1.4809160305343512,0.2059013427734375,1.9943699829101562,10.223241088867187,29.706470588235295
2025-10-20T14:34:27.228445,-7.854961832061068,-0.9236641221374046,3.145038167938931,0.13168109130859373,1.0462661254882812,10.493785876464843,29.61235294117647
2025-10-20T14:34:27.250608,-13.412213740458014,-0.24427480916030533,4.3893129770992365,0.33518823242187495,1.5897499023437498,9.49300958251953,30.31823529411765
2025-10-20T14:34:27.273956,-18.068702290076335,-0.4198473282442748,5.656488549618321,-0.22744915771484372,2.0733786376953125,9.694122521972655,30.459411764705884
2025-10-20T14:34:27.290846,-20.587786259541986,1.6641221374045803,5.969465648854962,0.2059013427734375,1.8363526733398436,9.816226806640625,29.61235294117647
2025-10-20T14:34:27.312337,-21.557251908396946,1.3511450381679388,6.465648854961832,0.39264907226562495,1.2138602416992186,9.82580361328125,29.61235294117647
2025-10-20T14:34:27.335405,-22.908396946564885,1.816793893129771,6.587786259541985,-0.143652099609375,0.8475473876953125,9.904812268066406,29.659411764705883
2025-10-20T14:34:27.352273,-21.923664122137403,2.0,6.679389312977099,0.3950432739257812,0.40222587890625,8.585607153320312,29.706470588235295
2025-10-20T14:34:27.372950,-18.34351145038168,-0.31297709923664124,6.061068702290076,0.6057330200195312,-0.0526724365234375,9.294290844726563,29.56529411764706
2025-10-20T14:34:27.395798,-9.259541984732824,3.0763358778625953,4.633587786259542,0.5363011718749999,0.8307879760742187,9.588777648925781,29.659411764705883
2025-10-20T14:34:27.413544,0.9847328244274809,-0.9923664122137404,4.679389312977099,0.23223756103515625,0.23702596435546874,9.545682019042967,29.659411764705883
2025-10-20T14:34:27.433319,2.83206106870229,1.5038167938931297,5.396946564885496,-0.6703764648437499,0.7565677246093749,9.260772021484375,29.659411764705883
2025-10-20T14:34:27.455886,9.946564885496183,0.030534351145038167,7.748091603053435,-0.21308394775390624,1.3575123413085937,8.927977990722656,29.61235294117647
2025-10-20T14:34:27.474506,17.51145038167939,-2.2595419847328246,6.8320610687022905,-0.4165910888671875,1.1013327636718748,9.172186560058593,29.000588235294117
2025-10-20T14:34:27.493417,21.412213740458014,-2.6412213740458017,7.67175572519084,0.296881005859375,1.4317325927734375,8.853757739257812,29.659411764705883
2025-10-20T14:34:27.516144,24.84732824427481,-2.50381679389313,7.702290076335878,0.29448680419921874,1.85790048828125,8.908824377441405,29.56529411764706
2025-10-20T14:34:27.535649,24.786259541984734,-3.8244274809160306,8.549618320610687,1.3407529296874998,2.1308394775390624,9.334992272949219,29.659411764705883
2025-10-20T14:34:27.553681,23.450381679389313,-3.2519083969465647,8.587786259541986,0.12449848632812499,2.2385785522460937,9.162609753417968,29.61235294117647
2025-10-20T14:34:27.576015,21.900763358778626,-1.0687022900763359,8.526717557251908,-0.36391865234375,2.35589443359375,9.694122521972655,30.31823529411765
2025-10-20T14:34:27.598131,19.259541984732824,-3.1297709923664123,8.679389312977099,-0.12210428466796874,2.2481553588867187,9.114725720214842,29.61235294117647
2025-10-20T14:34:27.616942,12.511450381679388,-1.2442748091603053,7.709923664122138,-0.03591302490234375,2.5617957763671875,9.102754711914063,29.000588235294117
2025-10-20T14:34:27.639380,6.99236641221374,-0.0916030534351145,6.0534351145038165,0.201112939453125,2.5641899780273434,9.524134204101562,29.56529411764706
2025-10-20T14:34:27.661556,3.9389312977099236,0.9007633587786259,3.3740458015267176,0.15083470458984374,2.913743420410156,9.176974963378905,29.706470588235295
2025-10-20T14:34:27.678510,0.07633587786259542,1.7633587786259541,3.8625954198473282,-0.40222587890625,2.9472622436523435,8.911218579101561,29.61235294117647
2025-10-20T14:34:27.700708,-3.648854961832061,0.6335877862595419,0.5190839694656488,-0.2154781494140625,2.262520568847656,9.251195214843749,29.56529411764706
2025-10-20T14:34:27.723406,-5.9541984732824424,3.7251908396946565,-1.534351145038168,-0.0909796630859375,2.50912333984375,8.91840118408203,29.56529411764706
2025-10-20T14:34:27.740375,-6.213740458015267,1.099236641221374,-3.3969465648854964,0.33039982910156246,2.319981408691406,10.812214697265624,29.706470588235295
