timestamp,gyro_x,gyro_y,gyro_z,acc_x,acc_y,acc_z,temp
2025-10-15T20:00:46.263185,2.053435114503817,4.297709923664122,-1.1755725190839694,0.3399766357421875,0.0430956298828125,9.229647399902344,30.741764705882353
2025-10-15T20:00:46.280417,0.8778625954198473,4.129770992366412,-0.6030534351145038,0.4860229370117187,-0.016759411621093748,9.423577734375,30.64764705882353
2025-10-15T20:00:46.297335,-0.19083969465648856,5.8320610687022905,-0.3435114503816794,0.4644751220703125,0.00239420166015625,9.334992272949219,30.69470588235294
2025-10-15T20:00:46.314209,-0.42748091603053434,3.2290076335877864,-0.04580152671755725,0.5410895751953124,-0.076614453125,9.3086560546875,30.64764705882353
2025-10-15T20:00:46.331044,-0.03816793893129771,2.900763358778626,0.3816793893129771,0.5123591552734374,0.09337386474609374,9.050082275390624,30.69470588235294
2025-10-15T20:00:46.347839,-2.145038167938931,2.7557251908396947,0.4580152671755725,0.5003881469726562,0.06464344482421874,9.318232861328125,30.788823529411765
2025-10-15T20:00:46.364614,-2.900763358778626,2.4198473282442747,0.6717557251908397,0.5243301635742187,0.105344873046875,9.119514123535156,30.69470588235294
2025-10-15T20:00:46.381419,-3.6946564885496183,1.7099236641221374,0.816793893129771,0.49320554199218747,0.11252747802734374,8.9255837890625,30.741764705882353
2025-10-15T20:00:46.398208,-4.366412213740458,0.8320610687022901,1.16793893129771,0.4261678955078125,0.11252747802734374,9.081206896972656,30.741764705882353
2025-10-15T20:00:46.414972,-5.068702290076335,0.3282442748091603,1.0458015267175573,0.5291185668945312,0.05746083984375,9.176974963378905,30.741764705882353
2025-10-15T20:00:46.431746,-5.458015267175573,0.04580152671755725,1.1145038167938932,0.45010991210937495,0.10295067138671875,9.018957653808593,30.64764705882353
2025-10-15T20:00:46.448518,-5.816793893129771,-0.6335877862595419,1.2671755725190839,0.44053310546874996,0.05027823486328125,9.138667736816405,30.64764705882353
2025-10-15T20:00:46.465291,-5.984732824427481,-1.6030534351145038,1.0763358778625953,0.4908113403320312,-0.023942016601562498,9.117119921875,30.741764705882353
2025-10-15T20:00:46.482065,-6.038167938931298,-1.8473282442748091,1.0,0.5506663818359374,-0.0047884033203125,9.085995300292968,30.64764705882353
2025-10-15T20:00:46.498837,-5.908396946564886,-2.1068702290076335,0.9083969465648855,0.5099649536132812,-0.011971008300781249,9.217676391601563,30.788823529411765
2025-10-15T20:00:46.515608,-5.6183206106870225,-2.5419847328244276,0.6946564885496184,0.5099649536132812,-0.0909796630859375,9.102754711914063,30.69470588235294
2025-10-15T20:00:46.532380,-5.1603053435114505,-3.267175572519084,0.2366412213740458,0.4740519287109375,-0.1292868896484375,9.105148913574219,30.69470588235294
2025-10-15T20:00:46.549151,-4.221374045801527,-3.49618320610687,-0.030534351145038167,0.5051765502929687,-0.19153613281249998,9.083601098632812,30.69470588235294
2025-10-15T20:00:46.565923,-2.885496183206107,-3.9618320610687023,-0.48091603053435117,0.5003881469726562,-0.19393033447265623,9.176974963378905,30.788823529411765
2025-10-15T20:00:46.582690,-2.198473282442748,-4.786259541984733,-0.6564885496183206,0.51714755859375,-0.16998831787109375,9.227253198242186,30.69470588235294
2025-10-15T20:00:46.599461,-0.7480916030534351,-4.8396946564885495,-0.916030534351145,0.5267243652343749,-0.21787235107421873,9.344569079589844,30.69470588235294
2025-10-15T20:00:46.616232,0.24427480916030533,-5.099236641221374,-1.2442748091603053,0.4740519287109375,-0.19632453613281248,9.270348828125,30.69470588235294
2025-10-15T20:00:46.633043,1.1374045801526718,-5.213740458015267,-1.83206106870229,0.4572925170898437,-0.18914193115234373,9.291896643066405,30.64764705882353
2025-10-15T20:00:46.649835,2.0839694656488548,-5.473282442748092,-1.9923664122137406,0.5339069702148437,-0.15322890625,9.354145886230468,30.741764705882353
2025-10-15T20:00:46.666613,2.8396946564885495,-5.526717557251908,-2.236641221374046,0.5506663818359374,-0.1484405029296875,9.423577734375,30.741764705882353
2025-10-15T20:00:46.683386,3.450381679389313,-5.267175572519084,-2.648854961832061,0.5530605834960938,-0.06703764648437499,9.404424121093749,30.741764705882353
2025-10-15T20:00:46.700152,3.564885496183206,-5.404580152671755,-2.854961832061069,0.5817910034179687,-0.02633621826171875,9.366116894531249,30.741764705882353
2025-10-15T20:00:46.716920,3.7480916030534353,-5.374045801526718,-3.0229007633587788,0.612915625,0.05027823486328125,9.327809667968749,30.64764705882353
2025-10-15T20:00:46.733697,3.7709923664122136,-4.9541984732824424,-2.9083969465648853,0.5698199951171875,0.0718260498046875,9.442731347656249,30.69470588235294
2025-10-15T20:00:46.750473,3.3206106870229006,-4.847328244274809,-3.2213740458015265,0.5530605834960938,0.12210428466796874,9.5001921875,30.69470588235294
2025-10-15T20:00:46.767246,2.8091603053435112,-4.5038167938931295,-2.900763358778626,0.6009446166992187,0.16998831787109375,9.473855969238281,30.69470588235294
2025-10-15T20:00:46.784039,2.1526717557251906,-4.183206106870229,-2.9160305343511452,0.63206923828125,0.086191259765625,9.619902270507811,30.741764705882353
2025-10-15T20:00:46.800819,1.2366412213740459,-3.4580152671755724,-2.7099236641221376,0.612915625,0.12689268798828124,9.68454571533203,30.64764705882353
2025-10-15T20:00:46.817592,-0.16030534351145037,-1.5572519083969465,-2.9770992366412212,0.32561142578124996,-0.040701428222656245,9.81862100830078,30.64764705882353
2025-10-15T20:00:46.834384,-0.8473282442748091,-2.1908396946564888,-2.0076335877862594,0.70868369140625,0.30406361083984373,9.787496386718749,30.64764705882353
2025-10-15T20:00:46.851167,-2.1297709923664123,-1.6488549618320612,-1.8778625954198473,0.718260498046875,0.15562310791015624,9.763554370117188,30.60058823529412
2025-10-15T20:00:46.867941,-3.549618320610687,-0.5114503816793893,-1.4580152671755726,0.9074024291992187,0.2825157958984375,9.907206469726562,30.60058823529412
2025-10-15T20:00:46.884753,-4.893129770992366,0.2900763358778626,-1.0916030534351144,0.6416460449218749,0.21787235107421873,9.727641345214844,30.60058823529412
2025-10-15T20:00:46.901575,-5.748091603053435,0.9847328244274809,-0.9541984732824428,0.6679822631835937,0.17956512451171874,9.775525378417969,30.64764705882353
2025-10-15T20:00:46.918362,-7.435114503816794,2.33587786259542,-0.6259541984732825,0.82360537109375,0.06464344482421874,10.460267053222656,30.553529411764707
2025-10-15T20:00:46.935145,-9.732824427480915,1.366412213740458,-0.21374045801526717,0.8116343627929687,-0.016759411621093748,9.718064538574218,30.741764705882353
2025-10-15T20:00:46.951924,-8.435114503816793,2.5343511450381677,-0.31297709923664124,0.7517793212890624,-0.033518823242187495,9.854534033203125,30.69470588235294
2025-10-15T20:00:46.968694,-9.65648854961832,3.7557251908396947,-0.09923664122137404,0.6943184814453125,0.04548983154296875,9.734823950195311,30.60058823529412
2025-10-15T20:00:46.985462,-8.98473282442748,4.5038167938931295,-0.183206106870229,0.622492431640625,-0.076614453125,9.512163195800781,30.69470588235294
2025-10-15T20:00:47.002234,-8.908396946564885,5.1603053435114505,0.12213740458015267,0.5889736083984375,-0.24660277099609373,9.595960253906249,30.69470588235294
2025-10-15T20:00:47.019010,-8.534351145038167,5.106870229007634,0.10687022900763359,0.5985504150390625,-0.2753331909179687,9.636661682128906,30.69470588235294
2025-10-15T20:00:47.035782,-7.0534351145038165,5.977099236641221,0.04580152671755725,0.5746083984375,-0.26815058593749996,9.737218151855469,30.69470588235294
2025-10-15T20:00:47.052549,-6.572519083969466,6.3816793893129775,-0.09923664122137404,0.5506663818359374,-0.27293898925781246,9.397241516113281,30.64764705882353
2025-10-15T20:00:47.069322,-4.755725190839694,6.0534351145038165,-0.3282442748091603,0.5339069702148437,-0.2346317626953125,9.411606726074218,30.64764705882353
2025-10-15T20:00:47.086095,-3.480916030534351,5.961832061068702,-0.32061068702290074,0.4740519287109375,-0.36631285400390623,9.361328491210937,30.741764705882353
2025-10-15T20:00:47.102928,-2.045801526717557,5.931297709923665,-0.5877862595419847,0.5339069702148437,-0.3112462158203125,9.306261853027344,30.64764705882353
2025-10-15T20:00:47.119787,-0.22900763358778625,7.755725190839694,-1.0763358778625953,0.5027823486328125,-0.296881005859375,9.22485899658203,30.69470588235294
2025-10-15T20:00:47.136571,1.282442748091603,5.641221374045801,-1.183206106870229,0.584185205078125,-0.28012159423828126,9.181763366699219,30.741764705882353
2025-10-15T20:00:47.153391,2.8931297709923665,4.99236641221374,-1.6106870229007633,0.488417138671875,-0.258573779296875,9.193734375,30.741764705882353
2025-10-15T20:00:47.170172,4.33587786259542,4.511450381679389,-1.8396946564885497,0.5147533569335937,-0.22505495605468748,9.112331518554686,30.64764705882353
2025-10-15T20:00:47.186992,5.251908396946565,4.083969465648855,-2.213740458015267,0.4644751220703125,-0.19632453613281248,9.13627353515625,30.69470588235294
2025-10-15T20:00:47.203776,6.412213740458015,5.8396946564885495,-2.3435114503816794,0.4740519287109375,-0.201112939453125,9.157821350097656,30.69470588235294
2025-10-15T20:00:47.220548,6.229007633587786,3.3893129770992365,-2.4427480916030535,0.4908113403320312,-0.143652099609375,9.133879333496093,30.69470588235294
2025-10-15T20:00:47.237391,6.900763358778626,2.480916030534351,-2.4732824427480917,0.51714755859375,-0.12449848632812499,9.09796630859375,30.64764705882353
2025-10-15T20:00:47.254234,6.877862595419847,3.816793893129771,-2.618320610687023,0.4860229370117187,-0.05746083984375,9.133879333496093,30.69470588235294
2025-10-15T20:00:47.271047,6.358778625954199,1.4732824427480915,-2.5114503816793894,0.46686932373046874,0.08379705810546874,9.131485131835937,30.69470588235294
2025-10-15T20:00:47.287813,6.091603053435114,0.8396946564885496,-2.3206106870229006,0.373495458984375,0.08140285644531249,9.018957653808593,30.788823529411765
2025-10-15T20:00:47.304572,4.809160305343512,0.1297709923664122,-2.068702290076336,0.430956298828125,0.10773907470703124,9.119514123535156,30.60058823529412
2025-10-15T20:00:47.321344,3.7099236641221376,-0.5190839694656488,-1.916030534351145,0.6081272216796875,0.15562310791015624,9.083601098632812,30.553529411764707
2025-10-15T20:00:47.338119,2.2748091603053435,-1.1374045801526718,-1.6488549618320612,0.48123453369140623,0.02633621826171875,9.09796630859375,30.64764705882353
2025-10-15T20:00:47.354889,0.7480916030534351,-1.6030534351145038,-1.1908396946564885,0.4477157104492187,0.19393033447265623,9.191340173339842,30.64764705882353
2025-10-15T20:00:47.371663,-1.213740458015267,-2.4732824427480917,-0.7709923664122137,0.5865794067382812,0.1771709228515625,9.13627353515625,30.64764705882353
2025-10-15T20:00:47.388434,-2.6717557251908395,-3.0839694656488548,-0.33587786259541985,0.32561142578124996,0.19393033447265623,9.18655177001953,30.741764705882353
2025-10-15T20:00:47.405196,-4.549618320610687,-3.6106870229007635,0.1297709923664122,0.47644613037109373,0.181959326171875,9.162609753417968,30.64764705882353
2025-10-15T20:00:47.421967,-3.9618320610687023,-4.351145038167939,0.5038167938931297,0.44053310546874996,0.1580173095703125,9.045293872070312,30.64764705882353
2025-10-15T20:00:47.438888,-7.1603053435114505,-5.00763358778626,0.6717557251908397,0.4955997436523437,0.17477672119140625,8.987833032226561,30.60058823529412
2025-10-15T20:00:47.455681,-8.427480916030534,-5.473282442748092,0.9923664122137404,0.4213794921875,0.2154781494140625,9.057264880371093,30.64764705882353
2025-10-15T20:00:47.472456,-9.389312977099237,-6.175572519083969,1.3587786259541985,0.46686932373046874,0.15083470458984374,9.050082275390624,30.64764705882353
2025-10-15T20:00:47.489229,-10.213740458015268,-6.778625954198473,1.5572519083969465,0.49320554199218747,0.10773907470703124,9.306261853027344,30.64764705882353
2025-10-15T20:00:47.505998,-10.511450381679388,-7.190839694656488,1.5877862595419847,0.5243301635742187,0.10773907470703124,8.932766394042968,30.741764705882353
2025-10-15T20:00:47.522767,-11.15267175572519,-7.526717557251908,1.786259541984733,0.5578489868164063,0.05027823486328125,9.085995300292968,30.64764705882353
2025-10-15T20:00:47.539537,-11.15267175572519,-7.778625954198473,1.7328244274809161,0.5746083984375,0.09576806640624999,9.323021264648437,30.64764705882353
2025-10-15T20:00:47.556304,-10.954198473282442,-8.022900763358779,1.6259541984732824,0.4908113403320312,0.00239420166015625,9.054870678710937,30.741764705882353
2025-10-15T20:00:47.573072,-10.48091603053435,-8.122137404580153,1.4274809160305344,0.5889736083984375,0.01915361328125,9.344569079589844,30.64764705882353
2025-10-15T20:00:47.589841,-9.916030534351146,-7.793893129770993,1.1603053435114503,0.612915625,-0.05027823486328125,9.270348828125,30.69470588235294
2025-10-15T20:00:47.606618,-9.16030534351145,-7.435114503816794,0.7786259541984732,0.5961562133789062,-0.06464344482421874,9.251195214843749,30.60058823529412
2025-10-15T20:00:47.623411,-8.381679389312977,-7.030534351145038,0.42748091603053434,0.679953271484375,-0.16998831787109375,9.418789331054686,30.60058823529412
2025-10-15T20:00:47.640191,-7.137404580152672,-6.114503816793893,-0.04580152671755725,0.7757213378906249,-0.2059013427734375,9.658209497070311,30.69470588235294
2025-10-15T20:00:47.656963,-6.106870229007634,-5.450381679389313,-0.40458015267175573,0.7326257080078125,-0.3136404174804687,9.643844287109374,30.69470588235294
2025-10-15T20:00:47.673736,-4.6106870229007635,-3.5343511450381677,-0.7862595419847328,0.6009446166992187,-0.29927520751953124,10.041281762695311,30.69470588235294
2025-10-15T20:00:47.690508,-3.801526717557252,-3.5419847328244276,-0.8778625954198473,0.6823474731445313,-0.21787235107421873,9.315838659667968,30.64764705882353
2025-10-15T20:00:47.707278,-1.2290076335877862,-2.427480916030534,-1.297709923664122,0.70868369140625,-0.1484405029296875,9.746794958496093,30.741764705882353
2025-10-15T20:00:47.724043,-0.22900763358778625,-0.6946564885496184,-2.0229007633587788,0.8858546142578124,-0.2705447875976562,9.667786303710937,30.64764705882353
2025-10-15T20:00:47.740815,1.4274809160305344,0.9389312977099237,-2.1755725190839694,0.7134720947265625,-0.373495458984375,9.713276135253906,30.741764705882353
2025-10-15T20:00:47.757585,2.549618320610687,1.3358778625954197,-2.4122137404580153,0.8092401611328125,-0.28490999755859375,9.744400756835937,30.64764705882353
2025-10-15T20:00:47.774355,3.1068702290076335,2.4122137404580153,-2.5801526717557253,0.7589619262695312,-0.26336218261718747,9.785102185058593,30.741764705882353
2025-10-15T20:00:47.791128,4.5038167938931295,4.419847328244275,-2.8244274809160306,0.8355763793945312,-0.3016694091796875,9.816226806640625,30.64764705882353
2025-10-15T20:00:47.807898,5.244274809160306,5.809160305343512,-3.099236641221374,0.7924807495117187,-0.22505495605468748,9.785102185058593,30.741764705882353
2025-10-15T20:00:47.824668,3.9083969465648853,6.480916030534351,-2.885496183206107,0.6177040283203125,-0.19153613281249998,9.636661682128906,30.741764705882353
2025-10-15T20:00:47.841439,6.221374045801527,7.106870229007634,-3.3435114503816794,0.8571241943359375,-0.11731588134765625,9.847351428222655,30.69470588235294
2025-10-15T20:00:47.858212,6.312977099236641,8.541984732824428,-2.9083969465648853,0.70868369140625,-0.10773907470703124,9.758765966796874,30.69470588235294
2025-10-15T20:00:47.874989,6.32824427480916,9.748091603053435,-2.9083969465648853,0.6488286499023437,-0.016759411621093748,9.610325463867188,30.788823529411765
2025-10-15T20:00:47.891762,5.67175572519084,10.145038167938932,-2.648854961832061,0.7110778930664062,0.01915361328125,9.550470422363281,30.788823529411765
2025-10-15T20:00:47.908532,4.679389312977099,10.381679389312977,-2.312977099236641,0.689530078125,0.09816226806640624,9.595960253906249,30.835882352941177
2025-10-15T20:00:47.925321,3.954198473282443,11.053435114503817,-2.0839694656488548,0.6464344482421874,0.05027823486328125,9.677363110351562,30.64764705882353
2025-10-15T20:00:47.942170,2.717557251908397,11.82442748091603,-1.748091603053435,0.5482721801757812,0.11731588134765625,9.478644372558593,30.69470588235294
2025-10-15T20:00:47.958953,0.030534351145038167,11.694656488549619,-1.251908396946565,0.5746083984375,0.18914193115234373,9.351751684570312,30.60058823529412
2025-10-15T20:00:47.975779,1.2671755725190839,10.86259541984733,-1.0687022900763359,0.316034619140625,0.28969840087890625,9.138667736816405,30.741764705882353
2025-10-15T20:00:47.992581,1.2061068702290076,9.51908396946565,-0.5419847328244275,0.5386953735351562,0.16998831787109375,9.437942944335937,30.741764705882353
2025-10-15T20:00:48.009359,0.2748091603053435,8.572519083969466,-0.183206106870229,0.4572925170898437,0.11731588134765625,9.354145886230468,30.741764705882353
2025-10-15T20:00:48.026128,-1.4427480916030535,7.66412213740458,0.32061068702290074,0.5626373901367188,0.3280056274414062,9.150638745117186,30.64764705882353
2025-10-15T20:00:48.042947,-2.0076335877862594,7.786259541984733,0.37404580152671757,0.47644613037109373,0.21308394775390624,9.272743029785156,30.788823529411765
2025-10-15T20:00:48.059736,-3.7480916030534353,6.8396946564885495,0.9694656488549618,0.4261678955078125,0.033518823242187495,9.169792358398437,30.60058823529412
2025-10-15T20:00:48.076508,-4.465648854961832,5.5038167938931295,1.083969465648855,0.4285620971679687,0.28012159423828126,8.904035974121093,30.69470588235294
2025-10-15T20:00:48.093283,-5.358778625954199,4.755725190839694,1.366412213740458,0.42377369384765623,0.13407529296874998,9.318232861328125,30.741764705882353
2025-10-15T20:00:48.110056,-6.770992366412214,4.32824427480916,1.5648854961832062,0.4740519287109375,0.17238251953125,9.150638745117186,30.64764705882353
2025-10-15T20:00:48.126826,-7.099236641221374,3.519083969465649,1.5725190839694656,0.47644613037109373,0.12210428466796874,9.062053283691405,30.741764705882353
2025-10-15T20:00:48.143599,-8.206106870229007,2.2519083969465647,1.7709923664122138,0.354341845703125,0.009576806640625,8.966285217285156,30.741764705882353
2025-10-15T20:00:48.160370,-8.50381679389313,1.1145038167938932,1.8931297709923665,0.4070142822265625,0.0,8.939948999023438,30.64764705882353
2025-10-15T20:00:48.177140,-8.740458015267176,0.5267175572519084,1.7938931297709924,0.39983167724609375,0.047884033203124995,9.222464794921875,30.69470588235294
2025-10-15T20:00:48.193912,-9.15267175572519,0.015267175572519083,1.5572519083969465,0.3902548706054687,-0.05027823486328125,9.018957653808593,30.788823529411765
2025-10-15T20:00:48.210682,-8.725190839694656,-1.381679389312977,1.4198473282442747,0.4381389038085937,0.011971008300781249,8.889670764160156,30.788823529411765
2025-10-15T20:00:48.227452,-8.251908396946565,-2.549618320610687,1.1984732824427482,0.4381389038085937,-0.08140285644531249,9.038111267089842,30.69470588235294
2025-10-15T20:00:48.244472,-8.061068702290076,-3.2977099236641223,0.7709923664122137,0.4285620971679687,0.00239420166015625,9.083601098632812,30.788823529411765
2025-10-15T20:00:48.261307,-7.00763358778626,-3.7786259541984735,0.4961832061068702,0.4213794921875,-0.16998831787109375,9.10993731689453,30.64764705882353
2025-10-15T20:00:48.278104,-6.480916030534351,-4.770992366412214,-0.08396946564885496,0.36152445068359373,-0.19393033447265623,9.02135185546875,30.741764705882353
2025-10-15T20:00:48.294889,-5.175572519083969,-5.717557251908397,-0.5572519083969466,0.4572925170898437,-0.16998831787109375,9.09796630859375,30.69470588235294
2025-10-15T20:00:48.311697,-4.519083969465649,-6.358778625954199,-0.8854961832061069,0.411802685546875,-0.2154781494140625,9.282319836425781,30.69470588235294
2025-10-15T20:00:48.328495,-3.312977099236641,-6.6183206106870225,-1.3969465648854962,0.39983167724609375,-0.2059013427734375,9.069235888671875,30.788823529411765
2025-10-15T20:00:48.345277,-2.122137404580153,-7.3816793893129775,-0.09923664122137404,0.3399766357421875,-0.15562310791015624,9.04050546875,30.64764705882353
2025-10-15T20:00:48.362052,-0.9389312977099237,-8.221374045801527,-2.3206106870229006,0.46686932373046874,-0.21068974609375,9.246406811523437,30.64764705882353
2025-10-15T20:00:48.378831,0.1450381679389313,-8.229007633587786,-2.8625954198473282,0.5339069702148437,-0.2657563842773437,9.313444458007812,30.64764705882353
2025-10-15T20:00:48.395602,0.8549618320610687,-8.374045801526718,-3.030534351145038,0.4836287353515625,-0.16998831787109375,9.414000927734374,30.64764705882353
2025-10-15T20:00:48.412375,2.2290076335877864,-8.19083969465649,-3.2061068702290076,0.5123591552734374,-0.03591302490234375,9.375693701171874,30.741764705882353
2025-10-15T20:00:48.429141,2.4732824427480917,-8.206106870229007,-3.50381679389313,0.5386953735351562,-0.2609679809570312,9.423577734375,30.64764705882353
2025-10-15T20:00:48.445912,3.1374045801526718,-8.022900763358779,-3.5267175572519083,0.6440402465820312,-0.2657563842773437,9.562441430664062,30.64764705882353
2025-10-15T20:00:48.462690,3.2442748091603053,-7.534351145038168,-3.3587786259541983,0.565031591796875,-0.06943184814453125,9.643844287109374,30.64764705882353
2025-10-15T20:00:48.479467,3.66412213740458,-6.763358778625954,-3.3740458015267176,0.6272808349609375,-0.086191259765625,9.643844287109374,30.64764705882353
2025-10-15T20:00:48.496241,3.4580152671755724,-6.488549618320611,-3.1908396946564888,0.7206546997070312,-0.062249243164062495,9.629479077148437,30.788823529411765
2025-10-15T20:00:48.513012,3.4122137404580153,-5.740458015267175,-2.6717557251908395,0.6727706665039062,0.040701428222656245,9.679757312011718,30.69470588235294
2025-10-15T20:00:48.529783,3.3053435114503817,-4.679389312977099,-2.6793893129770994,0.7230489013671875,-0.05746083984375,9.718064538574218,30.60058823529412
2025-10-15T20:00:48.546557,2.763358778625954,-3.83206106870229,-2.3893129770992365,0.70868369140625,0.1292868896484375,9.655815295410155,30.69470588235294
2025-10-15T20:00:48.563327,2.5267175572519083,-3.068702290076336,-2.0763358778625953,0.7134720947265625,0.0430956298828125,9.720458740234374,30.69470588235294
2025-10-15T20:00:48.580098,1.7709923664122138,-2.0763358778625953,-1.5725190839694656,0.6488286499023437,0.02633621826171875,9.737218151855469,30.788823529411765
2025-10-15T20:00:48.596870,1.1145038167938932,-1.3358778625954197,-1.282442748091603,0.7326257080078125,0.02154781494140625,9.610325463867188,30.69470588235294
2025-10-15T20:00:48.613639,0.6946564885496184,-0.05343511450381679,-0.8244274809160306,0.7326257080078125,0.04548983154296875,9.713276135253906,30.741764705882353
2025-10-15T20:00:48.630421,-0.16793893129770993,0.732824427480916,-0.5114503816793893,0.7541735229492187,0.09576806640624999,9.548076220703125,30.64764705882353
2025-10-15T20:00:48.647203,-0.9236641221374046,1.2213740458015268,-0.183206106870229,0.7541735229492187,0.0909796630859375,9.636661682128906,30.64764705882353
2025-10-15T20:00:48.663977,-1.7557251908396947,2.2900763358778624,0.16793893129770993,0.7422025146484375,0.05027823486328125,9.639055883789062,30.741764705882353
2025-10-15T20:00:48.680747,-2.49618320610687,2.9923664122137406,0.37404580152671757,0.7206546997070312,0.11731588134765625,9.591171850585937,30.64764705882353
2025-10-15T20:00:48.697522,-3.633587786259542,4.129770992366412,0.6335877862595419,0.7493851196289062,0.18435352783203124,9.351751684570312,30.741764705882353
2025-10-15T20:00:48.714291,-4.076335877862595,3.4122137404580153,0.9847328244274809,0.7829039428710937,0.1867477294921875,9.435548742675781,30.69470588235294
2025-10-15T20:00:48.731069,-4.8396946564885495,4.145038167938932,0.8702290076335878,0.6919242797851562,0.1149216796875,9.380482104492186,30.69470588235294
2025-10-15T20:00:48.747841,-5.709923664122138,4.687022900763359,1.183206106870229,0.7230489013671875,0.17477672119140625,9.284714038085937,30.69470588235294
2025-10-15T20:00:48.764608,-6.290076335877862,4.893129770992366,1.1908396946564885,0.718260498046875,0.1005564697265625,9.188945971679686,30.69470588235294
2025-10-15T20:00:48.781508,-7.099236641221374,4.312977099236641,1.3740458015267176,0.7038952880859375,0.12449848632812499,9.124302526855468,30.741764705882353
2025-10-15T20:00:48.798308,-7.358778625954199,4.251908396946565,1.3893129770992367,0.6153098266601562,0.086191259765625,9.251195214843749,30.741764705882353
2025-10-15T20:00:48.815092,-7.656488549618321,4.763358778625954,1.1755725190839694,0.7422025146484375,0.0383072265625,9.100360510253905,30.69470588235294
2025-10-15T20:00:48.831953,-7.709923664122138,4.351145038167939,1.0381679389312977,0.565031591796875,0.1292868896484375,9.102754711914063,30.64764705882353
2025-10-15T20:00:48.848741,-9.664122137404581,3.8931297709923665,0.8549618320610687,0.5267243652343749,-0.055066638183593745,9.102754711914063,30.64764705882353
2025-10-15T20:00:48.865516,-7.404580152671755,3.5114503816793894,0.6793893129770993,0.488417138671875,-0.05985504150390625,9.167398156738281,30.741764705882353
2025-10-15T20:00:48.882288,-6.740458015267175,3.519083969465649,0.46564885496183206,0.4836287353515625,-0.055066638183593745,9.066841687011719,30.69470588235294
2025-10-15T20:00:48.899110,-5.916030534351145,2.6717557251908395,0.22900763358778625,0.49799394531249996,-0.1197100830078125,8.961496813964843,30.788823529411765
2025-10-15T20:00:48.915896,-5.33587786259542,2.213740458015267,0.0,0.39743747558593745,-0.01915361328125,8.889670764160156,30.69470588235294
2025-10-15T20:00:48.932690,-3.984732824427481,1.702290076335878,-0.3893129770992366,0.5339069702148437,-0.18435352783203124,9.176974963378905,30.741764705882353
2025-10-15T20:00:48.949470,-3.267175572519084,1.5801526717557253,-0.42748091603053434,0.3950432739257812,-0.229843359375,9.131485131835937,30.64764705882353
2025-10-15T20:00:48.966242,-2.2977099236641223,1.0458015267175573,-0.6412213740458015,0.44053310546874996,-0.25139117431640623,9.124302526855468,30.64764705882353
2025-10-15T20:00:48.983014,-1.0916030534351144,0.6335877862595419,-0.9618320610687023,0.4525041137695312,-0.22505495605468748,9.172186560058593,30.64764705882353
2025-10-15T20:00:48.999786,-0.7099236641221374,0.19083969465648856,-1.1068702290076335,0.39983167724609375,-0.12689268798828124,9.191340173339842,30.69470588235294
2025-10-15T20:00:49.016557,0.3816793893129771,0.08396946564885496,-1.3206106870229009,0.430956298828125,-0.04548983154296875,9.119514123535156,30.69470588235294
2025-10-15T20:00:49.033328,0.6793893129770993,0.030534351145038167,-1.3969465648854962,0.4860229370117187,-0.08140285644531249,9.210493786621093,30.69470588235294
2025-10-15T20:00:49.050101,1.4427480916030535,-0.3435114503816794,-1.3969465648854962,0.45010991210937495,-0.17477672119140625,9.275137231445312,30.69470588235294
2025-10-15T20:00:49.066874,2.0916030534351147,-0.816793893129771,-1.5648854961832062,0.5793968017578125,-0.15322890625,9.404424121093749,30.69470588235294
2025-10-15T20:00:49.083648,2.3206106870229006,-0.5954198473282443,-1.5801526717557253,0.49320554199218747,-0.12689268798828124,9.327809667968749,30.741764705882353
2025-10-15T20:00:49.100417,2.4656488549618323,-0.6641221374045801,-1.6030534351145038,0.5458779785156249,-0.047884033203124995,9.382876306152344,30.64764705882353
2025-10-15T20:00:49.117188,2.4427480916030535,-0.8320610687022901,-1.3511450381679388,0.5195417602539062,-0.076614453125,9.368511096191405,30.741764705882353
2025-10-15T20:00:49.133965,2.549618320610687,-0.8549618320610687,-1.6412213740458015,0.5434837768554687,-0.02633621826171875,9.49300958251953,30.741764705882353
2025-10-15T20:00:49.150929,2.7099236641221376,-0.40458015267175573,-1.366412213740458,0.5770026000976562,-0.06703764648437499,9.56962403564453,30.64764705882353
2025-10-15T20:00:49.167719,2.2977099236641223,-0.3969465648854962,-1.3587786259541985,0.6560112548828124,0.00239420166015625,9.574412438964844,30.741764705882353
2025-10-15T20:00:49.184496,2.2977099236641223,0.08396946564885496,-1.083969465648855,0.5817910034179687,-0.15083470458984374,9.840168823242188,30.741764705882353
2025-10-15T20:00:49.201264,2.9770992366412212,-1.083969465648855,-0.6641221374045801,0.6919242797851562,-0.3447650390625,9.452308154296874,30.64764705882353
2025-10-15T20:00:49.218035,1.5572519083969465,-0.08396946564885496,-0.5877862595419847,0.4285620971679687,0.11252747802734374,9.267954626464844,30.69470588235294
2025-10-15T20:00:49.234806,1.717557251908397,0.3511450381679389,-0.5725190839694656,0.47165772705078124,0.15083470458984374,9.648632690429688,30.69470588235294
2025-10-15T20:00:49.251577,0.6106870229007634,1.5725190839694656,-0.5954198473282443,0.5339069702148437,0.07900865478515624,9.483432775878907,30.69470588235294
2025-10-15T20:00:49.268373,0.40458015267175573,1.2061068702290076,-0.732824427480916,0.46208092041015625,0.11731588134765625,9.753977563476562,30.64764705882353
2025-10-15T20:00:49.285154,-0.5648854961832062,0.8091603053435115,-0.5877862595419847,0.4477157104492187,0.4740519287109375,9.907206469726562,30.741764705882353
2025-10-15T20:00:49.301929,-0.8244274809160306,-1.9236641221374047,-0.5801526717557252,0.7398083129882812,0.15322890625,9.215282189941405,30.741764705882353
2025-10-15T20:00:49.318701,-2.015267175572519,0.5114503816793893,-0.366412213740458,0.5674257934570313,0.1005564697265625,9.540893615722656,30.64764705882353
2025-10-15T20:00:49.335472,-2.49618320610687,1.297709923664122,-0.48854961832061067,0.5722141967773438,0.3016694091796875,9.303867651367186,30.741764705882353
2025-10-15T20:00:49.352244,-3.2442748091603053,0.6106870229007634,-0.33587786259541985,0.49320554199218747,0.23702596435546874,9.279925634765624,30.69470588235294
2025-10-15T20:00:49.369015,-4.198473282442748,-0.8473282442748091,-0.03816793893129771,0.5386953735351562,0.01915361328125,9.172186560058593,30.69470588235294
2025-10-15T20:00:49.385785,-4.1603053435114505,-0.8625954198473282,-0.04580152671755725,0.5530605834960938,0.03591302490234375,9.272743029785156,30.69470588235294
2025-10-15T20:00:49.402555,-4.740458015267175,-0.6564885496183206,-0.10687022900763359,0.565031591796875,0.12210428466796874,9.485826977539062,30.788823529411765
2025-10-15T20:00:49.419322,-5.312977099236641,-0.9694656488549618,-0.29770992366412213,0.5195417602539062,0.12449848632812499,9.05965908203125,30.69470588235294
2025-10-15T20:00:49.436105,-5.572519083969466,-2.0916030534351147,-0.08396946564885496,0.5410895751953124,0.0526724365234375,9.337386474609374,30.741764705882353
2025-10-15T20:00:49.452880,-6.267175572519084,-2.801526717557252,-0.22137404580152673,0.48123453369140623,0.16519991455078123,9.212887988281249,30.64764705882353
2025-10-15T20:00:49.469652,-6.1679389312977095,-2.3969465648854964,-0.16030534351145037,0.5003881469726562,-0.1197100830078125,9.212887988281249,30.64764705882353
2025-10-15T20:00:49.486422,-6.786259541984733,-2.480916030534351,-0.3282442748091603,0.4836287353515625,0.01915361328125,9.188945971679686,30.64764705882353
2025-10-15T20:00:49.503194,-6.748091603053435,-3.5267175572519083,-0.5648854961832062,0.47165772705078124,0.040701428222656245,9.0788126953125,30.835882352941177
2025-10-15T20:00:49.519968,-6.931297709923665,-3.633587786259542,-0.3053435114503817,0.5339069702148437,0.13646949462890623,9.342174877929686,30.69470588235294
2025-10-15T20:00:49.536740,-7.0458015267175576,-3.2442748091603053,-0.549618320610687,0.5434837768554687,-0.03591302490234375,9.344569079589844,30.788823529411765
2025-10-15T20:00:49.553532,-6.480916030534351,-3.198473282442748,-0.6717557251908397,0.5482721801757812,-0.08379705810546874,9.064447485351561,30.69470588235294
2025-10-15T20:00:49.570303,-6.580152671755725,-3.8091603053435112,-0.9389312977099237,0.47644613037109373,-0.0718260498046875,9.287108239746093,30.60058823529412
2025-10-15T20:00:49.587074,-5.923664122137405,-3.6259541984732824,-0.816793893129771,0.5506663818359374,-0.143652099609375,9.284714038085937,30.64764705882353
2025-10-15T20:00:49.603848,-5.419847328244275,-2.6259541984732824,-0.8625954198473282,0.5578489868164063,-0.17238251953125,9.490615380859374,30.64764705882353
2025-10-15T20:00:49.620693,-4.885496183206107,-2.50381679389313,-1.1145038167938932,0.6679822631835937,-0.1580173095703125,9.361328491210937,30.741764705882353
2025-10-15T20:00:49.637490,-4.213740458015267,-2.6717557251908395,-1.251908396946565,0.6296750366210937,-0.2537853759765625,9.45470235595703,30.69470588235294
2025-10-15T20:00:49.654269,-3.0610687022900764,-1.7709923664122138,-1.4732824427480915,0.699106884765625,-0.3280056274414062,9.526528405761718,30.69470588235294
2025-10-15T20:00:49.671115,-1.8702290076335877,0.07633587786259542,-1.6564885496183206,0.6440402465820312,-0.47884033203125,9.550470422363281,30.741764705882353
2025-10-15T20:00:49.687901,-0.4961832061068702,-0.12213740458015267,-1.3511450381679388,0.8403647827148437,-0.3854664672851562,9.442731347656249,30.741764705882353
2025-10-15T20:00:49.704678,0.5267175572519084,0.29770992366412213,-1.5190839694656488,0.6655880615234374,-0.3495534423828125,9.485826977539062,30.741764705882353
2025-10-15T20:00:49.721455,1.6946564885496183,1.4961832061068703,-1.534351145038168,0.6703764648437499,-0.296881005859375,9.686939916992188,30.64764705882353
2025-10-15T20:00:49.738287,3.236641221374046,3.0229007633587788,-1.6717557251908397,0.7158662963867187,-0.34715924072265625,9.65342109375,30.788823529411765
2025-10-15T20:00:49.755082,4.198473282442748,3.4427480916030535,-1.6870229007633588,0.6488286499023437,-0.3280056274414062,9.603142858886718,30.60058823529412
2025-10-15T20:00:49.771847,5.198473282442748,3.7251908396946565,-1.8473282442748091,0.7254431030273437,-0.296881005859375,9.794678991699218,30.788823529411765
2025-10-15T20:00:49.788619,6.267175572519084,5.2748091603053435,-2.053435114503817,0.6703764648437499,-0.21787235107421873,9.648632690429688,30.741764705882353
2025-10-15T20:00:49.805392,7.091603053435114,6.068702290076335,-3.9083969465648853,0.5985504150390625,-0.29448680419921874,9.617508068847656,30.741764705882353
2025-10-15T20:00:49.822172,7.2748091603053435,6.4961832061068705,-1.9312977099236641,0.4860229370117187,-0.258573779296875,9.564835632324218,30.64764705882353
2025-10-15T20:00:49.838943,7.961832061068702,7.358778625954199,-2.0381679389312977,0.6272808349609375,-0.19871873779296872,9.495403784179686,30.64764705882353
2025-10-15T20:00:49.855715,8.022900763358779,7.648854961832061,-1.7328244274809161,0.7110778930664062,-0.09337386474609374,9.471461767578125,30.741764705882353
2025-10-15T20:00:49.872489,8.267175572519085,7.793893129770993,-1.8396946564885497,0.7326257080078125,-0.07422025146484375,9.404424121093749,30.60058823529412
2025-10-15T20:00:49.889263,8.038167938931299,7.938931297709924,-1.6870229007633588,0.7493851196289062,0.016759411621093748,9.34696328125,30.788823529411765
2025-10-15T20:00:49.906032,7.404580152671755,7.709923664122138,-1.4427480916030535,0.7350199096679687,0.09816226806640624,9.215282189941405,30.60058823529412
2025-10-15T20:00:49.922814,7.213740458015267,7.641221374045801,-1.3358778625954197,0.603338818359375,0.1197100830078125,9.373299499511718,30.69470588235294
2025-10-15T20:00:49.939602,6.396946564885496,7.320610687022901,-1.0381679389312977,0.5698199951171875,0.0047884033203125,9.222464794921875,30.64764705882353
2025-10-15T20:00:49.956373,5.236641221374046,6.854961832061068,-0.6717557251908397,0.5339069702148437,0.011971008300781249,9.306261853027344,30.741764705882353
2025-10-15T20:00:49.973143,4.221374045801527,6.183206106870229,-0.3053435114503817,0.5315127685546874,0.18914193115234373,9.184157568359375,30.64764705882353
2025-10-15T20:00:49.989959,2.7709923664122136,5.480916030534351,-0.3435114503816794,0.5363011718749999,0.2059013427734375,9.112331518554686,30.741764705882353
2025-10-15T20:00:50.006748,1.5648854961832062,4.763358778625954,0.16793893129770993,0.5027823486328125,0.23702596435546874,8.959102612304687,30.69470588235294
2025-10-15T20:00:50.023519,-0.08396946564885496,3.885496183206107,0.4580152671755725,0.4165910888671875,0.2442085693359375,9.04050546875,30.69470588235294
2025-10-15T20:00:50.040289,-1.5648854961832062,2.5877862595419847,0.7862595419847328,0.49799394531249996,0.239420166015625,9.138667736816405,30.69470588235294
2025-10-15T20:00:50.057057,-3.3740458015267176,1.7404580152671756,0.9847328244274809,0.46686932373046874,0.28012159423828126,9.0021982421875,30.69470588235294
2025-10-15T20:00:50.073830,-5.198473282442748,0.8396946564885496,1.3893129770992367,0.35673604736328124,0.3112462158203125,9.011775048828124,30.69470588235294
2025-10-15T20:00:50.090600,-7.038167938931298,-0.549618320610687,1.6488549618320612,0.4285620971679687,0.2753331909179687,8.908824377441405,30.741764705882353
2025-10-15T20:00:50.107370,-8.709923664122137,-1.5954198473282444,1.8702290076335877,0.41419688720703124,0.3064578125,8.930372192382812,30.553529411764707
2025-10-15T20:00:50.124138,-10.65648854961832,-2.4580152671755724,2.2290076335877864,0.4070142822265625,0.23223756103515625,8.968679418945312,30.64764705882353
2025-10-15T20:00:50.140912,-12.312977099236642,-3.8702290076335877,2.2442748091603053,0.411802685546875,0.29448680419921874,8.74601866455078,30.741764705882353
2025-10-15T20:00:50.157689,-13.618320610687023,-4.603053435114504,2.450381679389313,0.39743747558593745,0.18435352783203124,9.03332286376953,30.741764705882353
2025-10-15T20:00:50.174463,-15.122137404580153,-5.687022900763359,2.404580152671756,0.4070142822265625,0.19632453613281248,9.009380847167968,30.741764705882353
2025-10-15T20:00:50.191238,-16.244274809160306,-6.32824427480916,2.4580152671755724,0.46208092041015625,0.16280571289062498,8.99501563720703,30.69470588235294
2025-10-15T20:00:50.208010,-17.00763358778626,-7.1603053435114505,2.381679389312977,0.4644751220703125,0.17238251953125,9.035717065429687,30.69470588235294
2025-10-15T20:00:50.224779,-17.48854961832061,-7.732824427480916,2.267175572519084,0.46686932373046874,0.0430956298828125,9.107543115234375,30.69470588235294
2025-10-15T20:00:50.241549,-17.458015267175572,-8.099236641221374,2.0839694656488548,0.4860229370117187,-0.00718260498046875,9.291896643066405,30.69470588235294
2025-10-15T20:00:50.258319,-16.65648854961832,-5.526717557251908,2.5267175572519083,1.1156979736328125,-0.565031591796875,10.08677159423828,30.60058823529412
2025-10-15T20:00:50.275091,-19.50381679389313,-6.854961832061068,2.9083969465648853,1.2138602416992186,-0.8930372192382812,9.057264880371093,30.64764705882353
2025-10-15T20:00:50.291863,-15.366412213740459,-8.86259541984733,2.3053435114503817,0.8667010009765624,-0.076614453125,9.95987890625,30.741764705882353
2025-10-15T20:00:50.308636,-13.83206106870229,-7.0,1.8778625954198473,1.0510545288085937,-0.23223756103515625,10.218452685546874,30.64764705882353
2025-10-15T20:00:50.325405,-12.183206106870228,-3.687022900763359,1.2366412213740459,0.6296750366210937,-0.19632453613281248,9.421183532714844,30.741764705882353
2025-10-15T20:00:50.342175,-9.32824427480916,-4.740458015267175,0.8702290076335878,0.8667010009765624,-0.4644751220703125,9.911994873046874,30.64764705882353
2025-10-15T20:00:50.358947,-9.030534351145038,-5.2748091603053435,0.6946564885496184,0.5195417602539062,-0.25139117431640623,9.332598071289063,30.741764705882353
2025-10-15T20:00:50.375717,-5.67175572519084,-4.152671755725191,-0.183206106870229,0.7302315063476562,-0.6440402465820312,9.955090502929687,30.64764705882353
2025-10-15T20:00:50.392490,-4.732824427480916,-0.8015267175572519,-0.183206106870229,0.49320554199218747,-0.45968671875,9.883264453125,30.64764705882353
2025-10-15T20:00:50.409260,-1.5954198473282444,0.13740458015267176,-0.6793893129770993,0.6416460449218749,-0.47165772705078124,9.49300958251953,30.69470588235294
2025-10-15T20:00:50.426030,0.22137404580152673,-1.0534351145038168,-1.0076335877862594,0.6272808349609375,-0.4285620971679687,9.639055883789062,30.69470588235294
2025-10-15T20:00:50.442794,2.33587786259542,-0.5648854961832062,-1.2290076335877862,0.6967126831054687,-0.49320554199218747,9.457096557617186,30.788823529411765
2025-10-15T20:00:50.459642,5.106870229007634,1.6030534351145038,-1.83206106870229,0.6631938598632812,-0.38307226562499996,9.813832604980469,30.64764705882353
2025-10-15T20:00:50.476434,6.740458015267175,3.2595419847328246,-0.007633587786259542,0.6847416748046875,-0.373495458984375,9.598354455566406,30.64764705882353
2025-10-15T20:00:50.493212,8.717557251908397,2.5419847328244276,-2.3587786259541983,0.469263525390625,-0.45010991210937495,9.37808790283203,30.69470588235294
2025-10-15T20:00:50.510008,10.450381679389313,2.213740458015267,-2.3587786259541983,0.6416460449218749,-0.4070142822265625,9.758765966796874,30.69470588235294
2025-10-15T20:00:50.526851,11.206106870229007,3.9923664122137406,-2.732824427480916,0.6871358764648438,-0.2154781494140625,9.53131680908203,30.741764705882353
2025-10-15T20:00:50.543631,13.083969465648854,4.969465648854962,-2.8702290076335877,0.6943184814453125,-0.009576806640625,9.49300958251953,30.553529411764707
2025-10-15T20:00:50.560405,11.770992366412214,4.488549618320611,-2.7709923664122136,0.565031591796875,-0.27293898925781246,9.303867651367186,30.64764705882353
2025-10-15T20:00:50.577177,14.473282442748092,3.3893129770992365,-2.7480916030534353,0.6847416748046875,-0.02154781494140625,9.469067565917967,30.64764705882353
2025-10-15T20:00:50.593986,14.374045801526718,2.0229007633587788,-2.6259541984732824,0.6536170532226562,-0.1005564697265625,9.521740002441407,30.69470588235294
2025-10-15T20:00:50.610771,14.381679389312977,4.9465648854961835,-2.4885496183206106,0.584185205078125,0.08858546142578125,9.239224206542968,30.69470588235294
2025-10-15T20:00:50.627553,13.778625954198473,4.122137404580153,-2.1068702290076335,0.5458779785156249,0.1197100830078125,8.896853369140624,30.69470588235294
2025-10-15T20:00:50.644331,12.221374045801527,2.7251908396946565,-1.7251908396946565,0.49799394531249996,0.17956512451171874,9.167398156738281,30.64764705882353
2025-10-15T20:00:50.661106,11.389312977099237,2.9160305343511452,-1.381679389312977,0.5674257934570313,0.19632453613281248,9.311050256347656,30.741764705882353
2025-10-15T20:00:50.677877,9.450381679389313,3.450381679389313,-1.0,0.4381389038085937,0.258573779296875,9.133879333496093,30.64764705882353
2025-10-15T20:00:50.694646,7.564885496183206,2.0763358778625953,-0.5648854961832062,0.5027823486328125,0.373495458984375,8.920795385742187,30.741764705882353
2025-10-15T20:00:50.711427,4.9465648854961835,0.6412213740458015,-0.29770992366412213,0.49320554199218747,0.3399766357421875,9.176974963378905,30.64764705882353
2025-10-15T20:00:50.728194,2.2977099236641223,0.6717557251908397,0.015267175572519083,0.5889736083984375,0.34715924072265625,9.150638745117186,30.64764705882353
2025-10-15T20:00:50.744962,0.17557251908396945,0.16793893129770993,0.5954198473282443,0.49799394531249996,0.277727392578125,9.129090930175781,30.60058823529412
2025-10-15T20:00:50.761730,-2.786259541984733,-0.7862595419847328,0.816793893129771,0.5003881469726562,0.29927520751953124,9.04050546875,30.788823529411765
2025-10-15T20:00:50.778514,-5.221374045801527,-1.8473282442748091,1.0687022900763359,0.5363011718749999,0.2705447875976562,9.26316622314453,30.69470588235294
2025-10-15T20:00:50.795287,-7.145038167938932,-1.8778625954198473,1.5648854961832062,0.55545478515625,0.23702596435546874,9.296685046386719,30.69470588235294
2025-10-15T20:00:50.812056,-9.198473282442748,-1.4351145038167938,1.4427480916030535,0.5219359619140624,0.2442085693359375,9.203311181640624,30.69470588235294
2025-10-15T20:00:50.828825,-10.854961832061068,-2.3053435114503817,1.6259541984732824,0.5793968017578125,0.20350714111328125,9.184157568359375,30.69470588235294
2025-10-15T20:00:50.845670,-12.389312977099237,-2.5419847328244276,1.717557251908397,0.5674257934570313,0.12210428466796874,9.418789331054686,30.64764705882353
2025-10-15T20:00:50.862459,-13.091603053435115,-2.2290076335877864,1.6259541984732824,0.5195417602539062,0.047884033203124995,9.323021264648437,30.64764705882353
2025-10-15T20:00:50.879244,-13.572519083969466,-2.099236641221374,1.7938931297709924,0.5817910034179687,0.05985504150390625,9.3852705078125,30.553529411764707
2025-10-15T20:00:50.896016,-14.526717557251908,-1.7404580152671756,1.6793893129770991,0.5985504150390625,0.12210428466796874,9.143456140136719,30.835882352941177
2025-10-15T20:00:50.912785,-14.259541984732824,-2.0763358778625953,1.3587786259541985,0.5123591552734374,-0.14125789794921875,9.552864624023437,30.69470588235294
2025-10-15T20:00:50.929573,-14.32824427480916,-2.0381679389312977,1.1984732824427482,0.5243301635742187,-0.12689268798828124,9.524134204101562,30.60058823529412
2025-10-15T20:00:50.946351,-13.282442748091603,-1.2671755725190839,0.9465648854961832,0.4836287353515625,-0.06943184814453125,9.404424121093749,30.69470588235294
2025-10-15T20:00:50.963126,-12.67175572519084,-1.3358778625954197,0.8473282442748091,0.5770026000976562,-0.18435352783203124,9.296685046386719,30.741764705882353
2025-10-15T20:00:50.979894,-11.641221374045802,-1.2595419847328244,0.45038167938931295,0.469263525390625,-0.239420166015625,9.471461767578125,30.64764705882353
2025-10-15T20:00:50.996662,-10.282442748091603,-1.3282442748091603,0.37404580152671757,0.6248866333007812,-0.2561795776367187,9.550470422363281,30.741764705882353
2025-10-15T20:00:51.013436,-8.885496183206106,-0.24427480916030533,0.0916030534351145,0.6536170532226562,-0.24899697265624998,9.5384994140625,30.64764705882353
2025-10-15T20:00:51.030211,-7.137404580152672,-0.15267175572519084,0.06870229007633588,0.5722141967773438,-0.33758243408203126,9.404424121093749,30.64764705882353
2025-10-15T20:00:51.046982,-5.748091603053435,-0.15267175572519084,-0.12213740458015267,0.6248866333007812,-0.3112462158203125,9.476250170898437,30.69470588235294
2025-10-15T20:00:51.063754,-4.106870229007634,-0.16030534351145037,-0.3969465648854962,0.7517793212890624,-0.1580173095703125,9.294290844726563,30.69470588235294
2025-10-15T20:00:51.080523,-2.4198473282442747,0.4351145038167939,-0.48854961832061067,0.7493851196289062,-0.44053310546874996,9.471461767578125,30.69470588235294
2025-10-15T20:00:51.097295,-0.9465648854961832,0.8015267175572519,-0.40458015267175573,0.5602431884765625,-0.23223756103515625,9.220070593261719,30.788823529411765
2025-10-15T20:00:51.114072,0.916030534351145,0.3969465648854962,-0.5877862595419847,0.5626373901367188,-0.2920926025390625,9.370905297851563,30.69470588235294
2025-10-15T20:00:51.130863,2.282442748091603,0.5114503816793893,-0.8244274809160306,0.469263525390625,-0.45968671875,9.272743029785156,30.741764705882353
2025-10-15T20:00:51.147641,3.946564885496183,0.8702290076335878,-0.6717557251908397,0.59376201171875,-0.28969840087890625,9.356540087890625,30.64764705882353
2025-10-15T20:00:51.164417,5.259541984732825,0.816793893129771,-0.6564885496183206,0.5602431884765625,-0.28012159423828126,9.466673364257812,30.64764705882353
2025-10-15T20:00:51.181187,6.106870229007634,0.35877862595419846,-0.7022900763358778,0.5985504150390625,-0.3016694091796875,9.241618408203124,30.64764705882353
2025-10-15T20:00:51.197959,6.687022900763359,1.9389312977099236,-0.42748091603053434,0.59376201171875,-0.11252747802734374,9.313444458007812,30.741764705882353
2025-10-15T20:00:51.214731,7.251908396946565,0.183206106870229,-0.48854961832061067,0.5793968017578125,-0.04548983154296875,9.313444458007812,30.788823529411765
2025-10-15T20:00:51.231501,7.366412213740458,0.2595419847328244,-0.5343511450381679,0.5698199951171875,-0.040701428222656245,9.315838659667968,30.69470588235294
2025-10-15T20:00:51.248271,7.229007633587786,-0.29770992366412213,-0.42748091603053434,0.49799394531249996,0.01915361328125,9.220070593261719,30.788823529411765
2025-10-15T20:00:51.265189,6.809160305343512,-0.40458015267175573,-0.1984732824427481,0.5770026000976562,0.023942016601562498,9.284714038085937,30.64764705882353
2025-10-15T20:00:51.281989,6.473282442748092,-0.6717557251908397,-0.1450381679389313,0.5195417602539062,0.076614453125,9.234435803222656,30.69470588235294
2025-10-15T20:00:51.298896,5.541984732824427,-0.9541984732824428,-0.061068702290076333,0.5195417602539062,0.12210428466796874,9.18655177001953,30.64764705882353
2025-10-15T20:00:51.315767,4.763358778625954,-1.4122137404580153,0.2824427480916031,0.55545478515625,0.11013327636718749,9.241618408203124,30.69470588235294
2025-10-15T20:00:51.333421,3.7709923664122136,-1.5038167938931297,0.3969465648854962,0.4644751220703125,0.086191259765625,9.1554271484375,30.741764705882353
2025-10-15T20:00:51.351333,2.0076335877862594,-1.8396946564885497,0.24427480916030533,0.5410895751953124,0.09816226806640624,9.100360510253905,30.741764705882353
2025-10-15T20:00:51.368290,0.7099236641221374,-2.2290076335877864,0.5801526717557252,0.5386953735351562,0.13646949462890623,9.2320416015625,30.835882352941177
2025-10-15T20:00:51.385150,-0.7251908396946565,-2.5572519083969465,0.8396946564885496,0.584185205078125,0.12449848632812499,9.272743029785156,30.835882352941177
2025-10-15T20:00:51.401983,-2.099236641221374,-2.648854961832061,0.8396946564885496,0.5674257934570313,0.15083470458984374,9.272743029785156,30.69470588235294
2025-10-15T20:00:51.418813,-3.267175572519084,-2.6793893129770994,0.7709923664122137,0.47644613037109373,0.06943184814453125,9.320627062988281,30.64764705882353
2025-10-15T20:00:51.435668,-4.3816793893129775,-2.404580152671756,1.2366412213740459,0.5506663818359374,0.14604630126953125,9.411606726074218,30.69470588235294
2025-10-15T20:00:51.452506,-5.320610687022901,-2.3740458015267176,0.8854961832061069,0.5985504150390625,0.06703764648437499,9.524134204101562,30.69470588235294
2025-10-15T20:00:51.469326,-5.8320610687022905,-1.9923664122137406,1.0,0.5506663818359374,0.1149216796875,9.540893615722656,30.64764705882353
2025-10-15T20:00:51.486153,-6.816793893129771,-1.4274809160305344,0.8320610687022901,0.5865794067382812,0.14604630126953125,9.581595043945311,30.64764705882353
2025-10-15T20:00:51.503018,-7.312977099236641,-0.40458015267175573,1.0229007633587786,0.9720458740234375,0.11013327636718749,9.744400756835937,30.69470588235294
2025-10-15T20:00:51.519872,-9.755725190839694,-0.3053435114503817,0.8320610687022901,0.7302315063476562,0.05746083984375,9.583989245605467,30.64764705882353
2025-10-15T20:00:51.536724,-8.16793893129771,0.183206106870229,0.9389312977099237,0.737414111328125,0.13407529296874998,9.792284790039062,30.60058823529412
2025-10-15T20:00:51.553576,-8.282442748091603,1.2748091603053435,0.7862595419847328,0.7852981445312499,0.13407529296874998,9.957484704589843,30.741764705882353
2025-10-15T20:00:51.570429,-8.236641221374045,2.435114503816794,0.8931297709923665,0.7493851196289062,-0.062249243164062495,9.519345800781249,30.64764705882353
2025-10-15T20:00:51.587281,-8.541984732824428,2.648854961832061,1.0305343511450382,0.699106884765625,-0.14604630126953125,9.548076220703125,30.69470588235294
2025-10-15T20:00:51.604140,-8.274809160305344,3.3206106870229006,0.9083969465648855,0.737414111328125,-0.055066638183593745,9.801861596679688,30.64764705882353
2025-10-15T20:00:51.621023,-7.99236641221374,4.549618320610687,0.8778625954198473,0.7685387329101562,-0.09576806640624999,9.710881933593749,30.69470588235294
2025-10-15T20:00:51.637880,-7.595419847328245,5.557251908396947,1.0076335877862594,0.82360537109375,-0.086191259765625,9.658209497070311,30.64764705882353
2025-10-15T20:00:51.654731,-7.106870229007634,5.5038167938931295,1.099236641221374,0.6919242797851562,-0.023942016601562498,9.598354455566406,30.835882352941177
2025-10-15T20:00:51.671585,-6.717557251908397,5.9465648854961835,1.083969465648855,0.7110778930664062,-0.08379705810546874,9.658209497070311,30.69470588235294
2025-10-15T20:00:51.688966,-5.908396946564886,6.923664122137405,1.1145038167938932,0.6177040283203125,-0.08140285644531249,9.521740002441407,30.64764705882353
2025-10-15T20:00:51.705887,-5.221374045801527,7.267175572519084,0.8549618320610687,0.6631938598632812,-0.11731588134765625,9.402029919433593,30.69470588235294
2025-10-15T20:00:51.722718,-4.511450381679389,7.0534351145038165,1.0763358778625953,0.6775590698242188,-0.19393033447265623,9.390058911132812,30.64764705882353
2025-10-15T20:00:51.739547,-3.6793893129770994,6.778625954198473,0.8854961832061069,0.5315127685546874,-0.1149216796875,9.344569079589844,30.741764705882353
2025-10-15T20:00:51.756379,-2.7480916030534353,6.564885496183206,0.6870229007633588,0.5722141967773438,-0.143652099609375,9.272743029785156,30.788823529411765
2025-10-15T20:00:51.773211,-1.7557251908396947,6.198473282442748,0.6030534351145038,0.5506663818359374,-0.09337386474609374,9.119514123535156,30.64764705882353
2025-10-15T20:00:51.790059,-1.0610687022900764,5.206106870229007,0.5267175572519084,0.32082302246093747,-0.016759411621093748,9.02135185546875,30.788823529411765
2025-10-15T20:00:51.806917,0.06870229007633588,4.099236641221374,0.40458015267175573,0.41898529052734373,-0.047884033203124995,8.889670764160156,30.69470588235294
2025-10-15T20:00:51.823763,1.1908396946564885,3.267175572519084,0.19083969465648856,0.4429273071289062,-0.076614453125,8.90643017578125,30.741764705882353
2025-10-15T20:00:51.840614,1.3740458015267176,2.3587786259541983,-0.04580152671755725,0.3854664672851562,-0.076614453125,8.980650427246093,30.69470588235294
2025-10-15T20:00:51.857458,0.0,2.1603053435114505,-1.9465648854961832,0.3758896606445312,-0.047884033203124995,9.028534460449219,30.60058823529412
2025-10-15T20:00:51.874301,3.8931297709923665,1.099236641221374,-0.3435114503816794,0.3687070556640625,-0.08140285644531249,8.889670764160156,30.741764705882353
2025-10-15T20:00:51.891155,1.8625954198473282,1.9083969465648856,-0.44274809160305345,0.3232172241210937,0.03591302490234375,8.932766394042968,30.69470588235294
2025-10-15T20:00:51.908014,1.6259541984732824,-1.0534351145038168,-0.5801526717557252,0.33518823242187495,0.028730419921875,8.963891015625,30.741764705882353
2025-10-15T20:00:51.924860,0.0,-1.7709923664122138,-0.6564885496183206,0.44532150878906246,0.062249243164062495,8.94473740234375,30.835882352941177
2025-10-15T20:00:51.941703,1.6641221374045803,-2.4122137404580153,-0.8396946564885496,0.15083470458984374,0.36391865234375,9.035717065429687,30.788823529411765
2025-10-15T20:00:51.958548,2.068702290076336,-4.6106870229007635,-2.564885496183206,0.22026655273437498,-0.08858546142578125,9.634267480468749,30.64764705882353
2025-10-15T20:00:51.975394,-1.8091603053435115,-0.11450381679389313,-3.6717557251908395,1.0558429321289062,-0.12449848632812499,9.65342109375,30.741764705882353
2025-10-15T20:00:51.992238,1.8702290076335877,-0.48091603053435117,-5.015267175572519,0.22026655273437498,0.3399766357421875,8.865728747558594,30.69470588235294
2025-10-15T20:00:52.009080,-0.2595419847328244,-1.16793893129771,-5.236641221374046,0.5339069702148437,-0.08140285644531249,9.066841687011719,30.741764705882353
2025-10-15T20:00:52.025921,0.16793893129770993,-5.8320610687022905,-5.33587786259542,0.13407529296874998,0.181959326171875,8.94473740234375,30.64764705882353
2025-10-15T20:00:52.042787,0.3282442748091603,-2.9923664122137406,-5.175572519083969,0.7517793212890624,-0.29448680419921874,9.813832604980469,30.69470588235294
2025-10-15T20:00:52.059644,-1.5038167938931297,-2.435114503816794,-5.221374045801527,0.488417138671875,0.05027823486328125,8.95670841064453,30.64764705882353
2025-10-15T20:00:52.076496,0.022900763358778626,-2.9770992366412212,-5.450381679389313,0.507570751953125,-0.02154781494140625,8.949525805664061,30.69470588235294
2025-10-15T20:00:52.093347,-2.0076335877862594,-6.221374045801527,-5.114503816793893,0.6105214233398437,-0.02154781494140625,9.639055883789062,30.741764705882353
2025-10-15T20:00:52.110221,-0.8625954198473282,-4.183206106870229,-5.083969465648855,0.5027823486328125,0.1005564697265625,9.457096557617186,30.741764705882353
2025-10-15T20:00:52.127066,-1.1526717557251909,-2.5877862595419847,-4.9541984732824424,0.7326257080078125,0.15322890625,9.526528405761718,30.69470588235294
2025-10-15T20:00:52.143977,-1.5114503816793894,-3.9770992366412212,-6.106870229007634,0.34715924072265625,0.20829554443359374,9.112331518554686,30.64764705882353
2025-10-15T20:00:52.160860,-1.0763358778625953,-4.6106870229007635,-7.770992366412214,0.5961562133789062,-0.05985504150390625,9.935936889648437,30.69470588235294
2025-10-15T20:00:52.177717,-0.183206106870229,-2.49618320610687,-8.748091603053435,0.584185205078125,0.05746083984375,9.732429748535155,30.741764705882353
2025-10-15T20:00:52.194600,0.3816793893129771,-1.3587786259541985,-9.083969465648854,0.2609679809570312,-0.3806780639648437,8.911218579101561,30.69470588235294
2025-10-15T20:00:52.211476,0.7099236641221374,-4.465648854961832,-7.206106870229007,0.4070142822265625,-0.3950432739257812,9.239224206542968,30.741764705882353
2025-10-15T20:00:52.228402,-2.6793893129770994,-4.580152671755725,-4.183206106870229,-0.009576806640625,-0.4333505004882812,9.955090502929687,30.64764705882353
2025-10-15T20:00:52.245268,-3.381679389312977,-2.16793893129771,-2.0,0.6296750366210937,-0.3687070556640625,9.986215124511718,30.741764705882353
2025-10-15T20:00:52.262117,-4.427480916030534,0.7404580152671756,-0.3969465648854962,0.7781155395507812,-0.29448680419921874,9.56962403564453,30.69470588235294
2025-10-15T20:00:52.278967,-5.251908396946565,-1.381679389312977,-1.9389312977099236,0.5458779785156249,0.2154781494140625,9.524134204101562,30.64764705882353
2025-10-15T20:00:52.295975,-5.732824427480916,-2.480916030534351,-0.7480916030534351,0.6655880615234374,0.1771709228515625,9.919177478027343,30.835882352941177
2025-10-15T20:00:52.312867,-6.091603053435114,1.8549618320610688,-1.6641221374045803,0.6272808349609375,0.16998831787109375,9.888052856445311,30.69470588235294
2025-10-15T20:00:52.331127,-4.511450381679389,4.343511450381679,-2.2213740458015265,0.5817910034179687,0.04548983154296875,9.404424121093749,30.69470588235294
2025-10-15T20:00:52.348018,-4.9541984732824424,2.9236641221374047,-2.351145038167939,0.5339069702148437,0.09337386474609374,8.997409838867187,30.64764705882353
2025-10-15T20:00:52.364925,-4.793893129770993,-1.297709923664122,-3.068702290076336,0.7589619262695312,0.38307226562499996,9.212887988281249,30.69470588235294
2025-10-15T20:00:52.381819,-4.5038167938931295,1.015267175572519,-7.5038167938931295,0.5746083984375,0.699106884765625,9.765948571777344,30.741764705882353
2025-10-15T20:00:52.398663,-1.6259541984732824,6.694656488549619,-10.67175572519084,0.37828386230468747,0.00239420166015625,9.809044201660155,30.69470588235294
2025-10-15T20:00:52.415460,-0.22137404580152673,8.641221374045802,-10.16793893129771,0.32561142578124996,-0.5315127685546874,9.028534460449219,30.69470588235294
2025-10-15T20:00:52.432253,-1.8625954198473282,5.778625954198473,-5.603053435114504,0.6607996582031249,-1.0606313354492187,8.494627490234375,30.64764705882353
2025-10-15T20:00:52.449047,-4.450381679389313,-0.6106870229007634,1.9389312977099236,0.7805097412109374,-1.9871873779296874,8.482656481933594,30.741764705882353
2025-10-15T20:00:52.465821,-5.458015267175573,-1.3435114503816794,8.0,0.9504980590820312,-1.678335363769531,8.712499841308594,30.553529411764707
2025-10-15T20:00:52.482607,-7.419847328244275,-3.404580152671756,17.755725190839694,0.8643067993164062,-1.5825672973632812,8.710105639648438,30.741764705882353
2025-10-15T20:00:52.499415,-11.198473282442748,-7.1603053435114505,25.114503816793892,0.699106884765625,-1.3383587280273437,9.004592443847656,30.69470588235294
2025-10-15T20:00:52.516243,-13.061068702290076,-6.816793893129771,32.7557251908397,0.7781155395507812,-1.8124106567382812,9.459490759277344,30.69470588235294
2025-10-15T20:00:52.533047,-15.877862595419847,-6.297709923664122,39.97709923664122,0.8403647827148437,-1.4724340209960938,9.210493786621093,30.64764705882353
2025-10-15T20:00:52.549839,-18.328244274809162,-7.030534351145038,47.17557251908397,0.82360537109375,-1.6807295654296874,8.923189587402343,30.741764705882353
2025-10-15T20:00:52.566618,-19.977099236641223,-8.625954198473282,53.83969465648855,1.0103531005859374,-1.7357962036132812,8.896853369140624,30.64764705882353
2025-10-15T20:00:52.583389,-21.244274809160306,-10.412213740458014,60.38931297709924,1.0007762939453124,-1.7405846069335937,9.026140258789061,30.741764705882353
2025-10-15T20:00:52.600169,-21.259541984732824,-10.618320610687023,65.74045801526718,1.1133037719726562,-1.7573440185546874,9.358934289550781,30.741764705882353
2025-10-15T20:00:52.616943,-20.297709923664122,-9.977099236641221,70.46564885496183,0.612915625,-1.3383587280273437,8.686163623046875,30.741764705882353
2025-10-15T20:00:52.633727,-19.206106870229007,-13.49618320610687,74.19847328244275,0.612915625,-1.6160861206054686,8.377311608886718,30.741764705882353
2025-10-15T20:00:52.650506,-16.61832061068702,-14.442748091603054,76.86259541984732,0.8762778076171874,-1.4724340209960938,9.030928662109375,30.788823529411765
2025-10-15T20:00:52.667278,-13.786259541984732,-14.709923664122137,78.93893129770993,1.0007762939453124,-1.4628572143554686,9.246406811523437,30.69470588235294
2025-10-15T20:00:52.684074,-11.442748091603054,-14.923664122137405,79.87786259541984,0.7972691528320313,-1.1851298217773436,9.105148913574219,30.69470588235294
2025-10-15T20:00:52.700854,-7.854961832061068,-13.84732824427481,80.2442748091603,0.852335791015625,-1.3048399047851562,9.45470235595703,30.69470588235294
2025-10-15T20:00:52.717631,-5.809160305343512,-12.763358778625955,79.96946564885496,0.7805097412109374,-1.2330138549804688,9.4618849609375,30.64764705882353
2025-10-15T20:00:52.734407,-0.16793893129770993,-11.908396946564885,78.16793893129771,1.2210428466796874,-1.2904746948242187,9.579200842285156,30.741764705882353
2025-10-15T20:00:52.751180,2.7251908396946565,-11.381679389312977,79.97709923664122,1.5275006591796874,-1.3048399047851562,9.435548742675781,30.64764705882353
2025-10-15T20:00:52.767965,7.0458015267175576,-10.19083969465649,79.83969465648855,1.2282254516601563,-1.1947066284179686,9.658209497070311,30.741764705882353
2025-10-15T20:00:52.784750,9.442748091603054,-7.984732824427481,79.47328244274809,1.4820108276367188,-1.1156979736328125,9.816226806640625,30.741764705882353
2025-10-15T20:00:52.801527,12.709923664122137,-5.755725190839694,78.58015267175573,1.5011644409179687,-0.7876923461914062,9.785102185058593,30.741764705882353
2025-10-15T20:00:52.818300,15.091603053435115,-3.7709923664122136,77.10687022900764,1.668758557128906,-0.4955997436523437,9.885658654785155,30.69470588235294
2025-10-15T20:00:52.835072,16.778625954198475,-2.030534351145038,75.46564885496183,1.3814543579101561,-0.5506663818359374,9.9981861328125,30.60058823529412
2025-10-15T20:00:52.851845,18.564885496183205,2.351145038167939,73.30534351145039,1.5466542724609373,-0.3136404174804687,9.880870251464843,30.788823529411765
2025-10-15T20:00:52.869008,20.519083969465647,3.931297709923664,69.66412213740458,1.4245499877929686,-0.1484405029296875,9.967061511230469,30.64764705882353
2025-10-15T20:00:52.885812,22.587786259541986,8.51908396946565,65.89312977099236,1.4101847778320311,0.09576806640624999,9.04050546875,30.64764705882353
2025-10-15T20:00:52.902613,25.66412213740458,9.351145038167939,64.17557251908397,0.5506663818359374,-0.239420166015625,10.09395419921875,30.60058823529412
2025-10-15T20:00:52.919395,22.923664122137403,5.931297709923665,59.725190839694655,1.235408056640625,0.07422025146484375,10.137049829101562,30.69470588235294
2025-10-15T20:00:52.936184,25.106870229007633,8.534351145038167,56.587786259541986,1.0965443603515623,0.3136404174804687,9.631873278808593,30.69470588235294
2025-10-15T20:00:52.952957,24.16030534351145,10.145038167938932,54.87786259541985,1.1348515869140625,0.30406361083984373,9.512163195800781,30.69470588235294
2025-10-15T20:00:52.969731,23.748091603053435,9.419847328244275,52.45038167938932,0.8475473876953125,0.5123591552734374,9.095572106933593,30.788823529411765
2025-10-15T20:00:52.986725,22.61832061068702,9.206106870229007,50.48854961832061,0.9792284790039062,0.2920926025390625,9.318232861328125,30.788823529411765
2025-10-15T20:00:53.003508,20.15267175572519,8.557251908396946,48.93893129770992,0.8571241943359375,0.5219359619140624,9.351751684570312,30.64764705882353
2025-10-15T20:00:53.020280,19.17557251908397,9.694656488549619,47.45038167938932,0.9241618408203125,0.5913678100585937,9.222464794921875,30.64764705882353
2025-10-15T20:00:53.037114,16.48854961832061,8.366412213740459,46.61068702290076,0.7876923461914062,0.6105214233398437,9.018957653808593,30.741764705882353
2025-10-15T20:00:53.053889,13.618320610687023,7.076335877862595,45.48091603053435,0.6440402465820312,0.7613561279296874,8.987833032226561,30.741764705882353
2025-10-15T20:00:53.070670,10.870229007633588,5.755725190839694,44.68702290076336,0.8930372192382812,0.6296750366210937,9.126696728515624,30.69470588235294
2025-10-15T20:00:53.087503,7.351145038167939,6.183206106870229,43.97709923664122,0.7326257080078125,0.7637503295898437,9.184157568359375,30.788823529411765
2025-10-15T20:00:53.104282,4.572519083969466,4.854961832061068,43.25954198473283,0.7445967163085937,0.7781155395507812,8.480262280273436,30.64764705882353
2025-10-15T20:00:53.121053,0.5801526717557252,1.2442748091603053,43.083969465648856,0.6057330200195312,0.5051765502929687,8.734047656249999,30.64764705882353
2025-10-15T20:00:53.137821,-2.450381679389313,0.32061068702290074,42.61832061068702,0.7900865478515624,0.7326257080078125,9.320627062988281,30.741764705882353
2025-10-15T20:00:53.154612,-4.816793893129771,0.8778625954198473,42.045801526717554,0.7948749511718749,0.51714755859375,9.469067565917967,30.741764705882353
2025-10-15T20:00:53.171394,-7.679389312977099,-0.2824427480916031,41.82442748091603,0.8571241943359375,0.6464344482421874,9.229647399902344,30.64764705882353
2025-10-15T20:00:53.188165,-9.068702290076336,-1.0763358778625953,41.29007633587786,0.7541735229492187,0.5386953735351562,9.052476477050782,30.69470588235294
2025-10-15T20:00:53.204936,-11.778625954198473,-2.4122137404580153,40.900763358778626,0.7038952880859375,0.5099649536132812,9.215282189941405,30.60058823529412
2025-10-15T20:00:53.221707,-12.854961832061068,-2.2900763358778624,40.152671755725194,0.5961562133789062,0.35673604736328124,9.306261853027344,30.69470588235294
2025-10-15T20:00:53.238476,-14.083969465648854,-2.969465648854962,39.61068702290076,0.6560112548828124,0.4261678955078125,9.342174877929686,30.69470588235294
2025-10-15T20:00:53.255246,-14.793893129770993,-3.3282442748091605,38.87786259541985,0.6248866333007812,0.28730419921875,9.212887988281249,30.788823529411765
2025-10-15T20:00:53.272049,-15.198473282442748,-4.572519083969466,38.06870229007634,0.6751648681640625,0.18435352783203124,9.272743029785156,30.835882352941177
2025-10-15T20:00:53.288839,-15.389312977099237,-5.465648854961832,37.50381679389313,0.612915625,0.19632453613281248,9.406818322753905,30.741764705882353
2025-10-15T20:00:53.305616,-14.977099236641221,-5.5038167938931295,36.51145038167939,0.6344634399414062,0.17956512451171874,9.617508068847656,30.741764705882353
2025-10-15T20:00:53.322388,-14.526717557251908,-5.465648854961832,35.79389312977099,0.5602431884765625,0.0909796630859375,9.45470235595703,30.64764705882353
2025-10-15T20:00:53.339159,-14.198473282442748,-5.580152671755725,34.70229007633588,0.5770026000976562,0.011971008300781249,9.284714038085937,30.64764705882353
2025-10-15T20:00:53.355923,-13.022900763358779,-6.404580152671755,34.16793893129771,0.6009446166992187,0.1149216796875,9.507374792480467,30.69470588235294
2025-10-15T20:00:53.372688,-12.15267175572519,-6.374045801526718,32.717557251908396,0.699106884765625,0.03591302490234375,9.519345800781249,30.69470588235294
2025-10-15T20:00:53.389457,-11.49618320610687,-4.8396946564885495,31.885496183206108,0.45489831542968745,-0.02633621826171875,9.65342109375,30.788823529411765
2025-10-15T20:00:53.406268,-9.679389312977099,-5.129770992366412,30.564885496183205,0.5985504150390625,0.0383072265625,9.428366137695312,30.69470588235294
2025-10-15T20:00:53.423052,-8.351145038167939,-5.862595419847328,29.435114503816795,0.6943184814453125,-0.02154781494140625,9.595960253906249,30.69470588235294
2025-10-15T20:00:53.439824,-6.656488549618321,-5.251908396946565,28.549618320610687,0.7637503295898437,-0.00718260498046875,9.550470422363281,30.69470588235294
2025-10-15T20:00:53.456593,-5.122137404580153,-4.2748091603053435,29.221374045801525,0.6943184814453125,-0.0430956298828125,9.476250170898437,30.64764705882353
2025-10-15T20:00:53.473381,-3.7099236641221376,-3.50381679389313,26.38167938931298,0.6703764648437499,-0.055066638183593745,9.469067565917967,30.64764705882353
2025-10-15T20:00:53.490174,-1.8625954198473282,-3.2748091603053435,25.435114503816795,0.6871358764648438,-0.055066638183593745,9.504980590820312,30.64764705882353
2025-10-15T20:00:53.506949,-0.6106870229007634,-3.236641221374046,24.564885496183205,0.689530078125,-0.05027823486328125,9.358934289550781,30.64764705882353
2025-10-15T20:00:53.523723,1.0076335877862594,-2.7938931297709924,23.480916030534353,0.6943184814453125,-0.10295067138671875,9.313444458007812,30.64764705882353
2025-10-15T20:00:53.540497,2.6259541984732824,-1.8854961832061068,22.549618320610687,0.737414111328125,-0.0143652099609375,9.358934289550781,30.741764705882353
2025-10-15T20:00:53.557266,3.8625954198473282,-1.251908396946565,21.893129770992367,0.6967126831054687,0.28969840087890625,9.229647399902344,30.64764705882353
2025-10-15T20:00:53.574043,5.374045801526718,-0.9389312977099237,21.244274809160306,0.2657563842773437,0.5770026000976562,9.30147344970703,30.741764705882353
2025-10-15T20:00:53.590822,5.702290076335878,-0.5801526717557252,21.328244274809162,0.21068974609375,0.6272808349609375,9.205705383300781,30.835882352941177
2025-10-15T20:00:53.607592,7.3816793893129775,-0.1984732824427481,21.061068702290076,0.28730419921875,0.6344634399414062,9.210493786621093,30.69470588235294
2025-10-15T20:00:53.624377,7.748091603053435,0.8702290076335878,20.908396946564885,0.2825157958984375,0.5961562133789062,9.299079248046874,30.69470588235294
2025-10-15T20:00:53.641151,8.145038167938932,0.9923664122137404,20.82442748091603,0.28969840087890625,0.47644613037109373,9.17458076171875,30.69470588235294
2025-10-15T20:00:53.657919,8.0,1.2213740458015268,20.641221374045802,0.5243301635742187,0.3447650390625,9.193734375,30.69470588235294
2025-10-15T20:00:53.674709,7.030534351145038,0.7404580152671756,20.99236641221374,0.46686932373046874,0.34715924072265625,9.167398156738281,30.69470588235294
2025-10-15T20:00:53.691484,6.366412213740458,1.450381679389313,20.984732824427482,0.584185205078125,0.28490999755859375,9.272743029785156,30.741764705882353
2025-10-15T20:00:53.708258,5.442748091603053,1.5648854961832062,21.27480916030534,0.5746083984375,0.29448680419921874,9.205705383300781,30.741764705882353
2025-10-15T20:00:53.725028,4.106870229007634,1.2290076335877862,19.541984732824428,0.5051765502929687,0.3184288208007812,9.124302526855468,30.64764705882353
2025-10-15T20:00:53.741795,2.687022900763359,1.3740458015267176,21.81679389312977,0.5434837768554687,0.36152445068359373,9.26316622314453,30.64764705882353
2025-10-15T20:00:53.758561,1.3129770992366412,1.8091603053435115,22.35114503816794,0.4955997436523437,0.277727392578125,9.131485131835937,30.64764705882353
2025-10-15T20:00:53.775330,0.13740458015267176,1.7099236641221374,22.923664122137403,0.5722141967773438,0.19393033447265623,9.332598071289063,30.741764705882353
2025-10-15T20:00:53.792099,-1.6259541984732824,1.549618320610687,23.572519083969464,0.507570751953125,0.26336218261718747,9.236830004882812,30.741764705882353
2025-10-15T20:00:53.808869,-3.16793893129771,1.3511450381679388,23.938931297709924,0.7493851196289062,0.22505495605468748,9.390058911132812,30.741764705882353
2025-10-15T20:00:53.825681,-4.549618320610687,1.4427480916030535,24.53435114503817,0.6631938598632812,0.1292868896484375,9.418789331054686,30.69470588235294
2025-10-15T20:00:53.842472,-6.32824427480916,1.4351145038167938,25.022900763358777,0.6679822631835937,0.09816226806640624,9.222464794921875,30.69470588235294
2025-10-15T20:00:53.859254,-7.244274809160306,1.1908396946564885,25.267175572519083,0.9074024291992187,0.10773907470703124,9.299079248046874,30.60058823529412
2025-10-15T20:00:53.876129,-8.50381679389313,0.9770992366412213,25.549618320610687,0.8020575561523438,-0.0718260498046875,9.284714038085937,30.64764705882353
2025-10-15T20:00:53.892916,-9.305343511450381,0.7175572519083969,25.893129770992367,0.7972691528320313,-0.24181436767578124,9.485826977539062,30.741764705882353
2025-10-15T20:00:53.909689,-9.900763358778626,0.5190839694656488,26.076335877862597,0.8930372192382812,-0.4381389038085937,9.459490759277344,30.741764705882353
2025-10-15T20:00:53.926482,-9.938931297709924,0.3893129770992366,26.236641221374047,0.8690952026367187,-0.258573779296875,9.409212524414063,30.741764705882353
2025-10-15T20:00:53.943319,-10.473282442748092,0.35877862595419846,26.053435114503817,0.9074024291992187,-0.4572925170898437,9.533711010742186,30.788823529411765
2025-10-15T20:00:53.960096,-10.053435114503817,1.9389312977099236,26.091603053435115,0.8667010009765624,-0.35194764404296874,9.464279162597656,30.788823529411765
2025-10-15T20:00:53.976870,-9.305343511450381,-0.12213740458015267,25.732824427480917,0.86191259765625,-0.45010991210937495,9.380482104492186,30.69470588235294
2025-10-15T20:00:53.993640,-8.442748091603054,0.1450381679389313,25.625954198473284,0.7158662963867187,-0.40940848388671874,9.437942944335937,30.69470588235294
2025-10-15T20:00:54.010424,-7.0534351145038165,-0.17557251908396945,25.106870229007633,0.8690952026367187,-0.46208092041015625,9.380482104492186,30.64764705882353
2025-10-15T20:00:54.027224,-5.480916030534351,-0.5725190839694656,24.702290076335878,0.9935936889648437,-0.33518823242187495,9.598354455566406,30.835882352941177
2025-10-15T20:00:54.044014,-5.786259541984733,-0.22900763358778625,23.87786259541985,0.6416460449218749,-0.35194764404296874,9.516951599121093,30.64764705882353
2025-10-15T20:00:54.060782,-3.8625954198473282,-0.022900763358778626,23.564885496183205,0.7398083129882812,-0.35673604736328124,9.588777648925781,30.741764705882353
2025-10-15T20:00:54.077581,-0.29770992366412213,0.16030534351145037,22.72519083969466,0.7326257080078125,-0.3064578125,9.655815295410155,30.69470588235294
2025-10-15T20:00:54.094360,2.3053435114503817,-0.366412213740458,21.633587786259543,0.6416460449218749,-0.37828386230468747,9.3086560546875,30.69470588235294
2025-10-15T20:00:54.111132,1.9618320610687023,-0.3816793893129771,21.282442748091604,0.59376201171875,-0.5267243652343749,9.459490759277344,30.69470588235294
2025-10-15T20:00:54.127904,5.816793893129771,-0.5572519083969466,20.47328244274809,0.5123591552734374,-0.4525041137695312,9.433154541015625,30.69470588235294
2025-10-15T20:00:54.144679,8.19083969465649,0.16030534351145037,19.328244274809162,0.45968671875,-0.42377369384765623,9.433154541015625,30.69470588235294
2025-10-15T20:00:54.161450,10.076335877862595,-0.06870229007633588,18.33587786259542,0.488417138671875,-0.32082302246093747,9.320627062988281,30.60058823529412
2025-10-15T20:00:54.178221,11.931297709923664,-0.8625954198473282,17.748091603053435,0.47165772705078124,-0.277727392578125,9.313444458007812,30.788823529411765
2025-10-15T20:00:54.194991,13.145038167938932,-0.8778625954198473,17.114503816793892,0.5363011718749999,-0.239420166015625,9.466673364257812,30.69470588235294
2025-10-15T20:00:54.211757,11.755725190839694,-0.25190839694656486,16.389312977099237,0.5147533569335937,-0.11731588134765625,9.37808790283203,30.60058823529412
2025-10-15T20:00:54.228526,14.17557251908397,-0.6412213740458015,16.14503816793893,0.49320554199218747,-0.06703764648437499,9.370905297851563,30.69470588235294
2025-10-15T20:00:54.245293,13.641221374045802,-1.1526717557251909,16.015267175572518,0.469263525390625,-0.05027823486328125,9.332598071289063,30.60058823529412
2025-10-15T20:00:54.262162,13.007633587786259,-1.1221374045801527,15.931297709923664,0.6081272216796875,0.14125789794921875,9.440337145996093,30.60058823529412
2025-10-15T20:00:54.278980,12.259541984732824,-0.7099236641221374,15.83969465648855,0.5482721801757812,0.12449848632812499,9.485826977539062,30.64764705882353
2025-10-15T20:00:54.295760,10.541984732824428,-0.5954198473282443,15.770992366412214,0.5219359619140624,0.258573779296875,9.337386474609374,30.788823529411765
2025-10-15T20:00:54.312531,8.763358778625955,-1.183206106870229,15.885496183206106,0.51714755859375,0.258573779296875,9.294290844726563,30.69470588235294
2025-10-15T20:00:54.329301,6.251908396946565,-1.5267175572519085,16.251908396946565,0.5339069702148437,0.28730419921875,9.334992272949219,30.69470588235294
2025-10-15T20:00:54.346070,3.946564885496183,-1.3358778625954197,16.442748091603054,0.7565677246093749,0.3399766357421875,9.394847314453125,30.788823529411765
2025-10-15T20:00:54.362852,1.1908396946564885,-1.1908396946564885,16.51145038167939,0.5482721801757812,0.35194764404296874,9.327809667968749,30.788823529411765
2025-10-15T20:00:54.379623,-1.6946564885496183,-1.6793893129770991,16.84732824427481,0.5123591552734374,0.3495534423828125,9.318232861328125,30.741764705882353
2025-10-15T20:00:54.396393,-4.412213740458015,-2.0839694656488548,16.931297709923665,0.59376201171875,0.29927520751953124,9.394847314453125,30.64764705882353
2025-10-15T20:00:54.413162,-7.068702290076335,-2.2519083969465647,16.938931297709924,0.47644613037109373,0.35673604736328124,9.442731347656249,30.741764705882353
2025-10-15T20:00:54.429938,-9.335877862595419,-2.3435114503816794,16.984732824427482,0.63206923828125,0.33039982910156246,9.325415466308593,30.64764705882353
2025-10-15T20:00:54.446711,-11.381679389312977,-2.2748091603053435,17.091603053435115,0.622492431640625,0.1580173095703125,9.279925634765624,30.741764705882353
2025-10-15T20:00:54.463481,-13.076335877862595,-2.6259541984732824,17.129770992366414,0.7445967163085937,0.24899697265624998,9.37808790283203,30.741764705882353
2025-10-15T20:00:54.480274,-14.305343511450381,-2.480916030534351,17.0381679389313,0.612915625,0.20350714111328125,9.387664709472656,30.788823529411765
2025-10-15T20:00:54.497050,-15.099236641221374,-2.351145038167939,16.755725190839694,0.5913678100585937,0.086191259765625,9.411606726074218,30.788823529411765
2025-10-15T20:00:54.513832,-15.748091603053435,-2.1526717557251906,16.48854961832061,0.6871358764648438,0.2920926025390625,9.358934289550781,30.69470588235294
2025-10-15T20:00:54.530609,-15.80916030534351,-2.16793893129771,16.450381679389313,0.7278373046875,0.0,9.37808790283203,30.69470588235294
2025-10-15T20:00:54.547380,-15.816793893129772,-2.0,16.12213740458015,0.6440402465820312,-0.040701428222656245,9.414000927734374,30.69470588235294
2025-10-15T20:00:54.564151,-15.625954198473282,-1.3969465648854962,15.816793893129772,0.6679822631835937,-0.09816226806640624,9.581595043945311,30.69470588235294
2025-10-15T20:00:54.580921,-14.793893129770993,-0.9083969465648855,15.488549618320612,0.6871358764648438,-0.009576806640625,9.466673364257812,30.69470588235294
2025-10-15T20:00:54.597688,-14.007633587786259,-0.8015267175572519,14.969465648854962,0.6248866333007812,-0.05985504150390625,9.411606726074218,30.60058823529412
2025-10-15T20:00:54.614456,-12.740458015267176,-0.2824427480916031,14.694656488549619,0.6416460449218749,-0.07422025146484375,9.363722692871093,30.69470588235294
2025-10-15T20:00:54.631243,-11.633587786259541,-0.16030534351145037,13.954198473282442,0.5889736083984375,-0.02154781494140625,9.593566052246093,30.64764705882353
2025-10-15T20:00:54.648021,-9.870229007633588,0.7938931297709924,13.786259541984732,0.6703764648437499,-0.22266075439453123,9.215282189941405,30.64764705882353
2025-10-15T20:00:54.664994,-8.465648854961833,0.8244274809160306,13.381679389312977,0.45489831542968745,-0.18435352783203124,9.425971936035156,30.69470588235294
2025-10-15T20:00:54.681790,-6.343511450381679,0.7099236641221374,12.603053435114504,0.5410895751953124,-0.22505495605468748,9.368511096191405,30.741764705882353
2025-10-15T20:00:54.698569,-4.99236641221374,1.0229007633587786,12.396946564885496,0.6440402465820312,-0.21068974609375,9.205705383300781,30.741764705882353
2025-10-15T20:00:54.715366,-3.3435114503816794,1.5648854961832062,11.877862595419847,0.5602431884765625,-0.16759411621093748,9.325415466308593,30.741764705882353
2025-10-15T20:00:54.732146,-1.4732824427480915,1.8854961832061068,11.19083969465649,0.4908113403320312,-0.2346317626953125,9.313444458007812,30.741764705882353
2025-10-15T20:00:54.748915,-0.09923664122137404,1.748091603053435,10.732824427480915,0.5817910034179687,-0.17956512451171874,9.236830004882812,30.64764705882353
2025-10-15T20:00:54.765685,1.381679389312977,1.7938931297709924,10.19083969465649,0.5291185668945312,-0.1388636962890625,9.234435803222656,30.741764705882353
2025-10-15T20:00:54.782458,2.801526717557252,1.8778625954198473,9.900763358778626,0.5722141967773438,-0.16041151123046873,9.291896643066405,30.69470588235294
2025-10-15T20:00:54.799286,3.8702290076335877,2.2519083969465647,9.435114503816793,0.612915625,-0.09337386474609374,9.169792358398437,30.788823529411765
2025-10-15T20:00:54.816068,4.786259541984733,1.8396946564885497,9.083969465648854,0.5123591552734374,-0.17477672119140625,9.227253198242186,30.69470588235294
2025-10-15T20:00:54.832841,5.679389312977099,1.786259541984733,8.618320610687023,0.5363011718749999,-0.11252747802734374,9.205705383300781,30.69470588235294
2025-10-15T20:00:54.849611,6.343511450381679,1.9312977099236641,8.251908396946565,0.5698199951171875,-0.0909796630859375,9.344569079589844,30.741764705882353
2025-10-15T20:00:54.868601,6.862595419847328,0.022900763358778626,7.717557251908397,0.7062894897460937,-0.0909796630859375,9.260772021484375,30.64764705882353
2025-10-15T20:00:54.885437,7.213740458015267,1.7404580152671756,7.687022900763359,0.5434837768554687,-0.13168109130859373,9.119514123535156,30.741764705882353
2025-10-15T20:00:54.902245,7.549618320610687,1.3587786259541985,7.297709923664122,0.5051765502929687,-0.10295067138671875,9.200916979980468,30.69470588235294
2025-10-15T20:00:54.919034,7.480916030534351,1.618320610687023,6.9541984732824424,0.47644613037109373,-0.08140285644531249,9.265560424804686,30.69470588235294
2025-10-15T20:00:54.935821,7.656488549618321,1.2290076335877862,6.641221374045801,0.5674257934570313,-0.05746083984375,9.162609753417968,30.69470588235294
2025-10-15T20:00:54.952597,7.259541984732825,0.6870229007633588,6.702290076335878,0.46208092041015625,-0.07422025146484375,9.241618408203124,30.60058823529412
2025-10-15T20:00:54.969374,6.931297709923665,0.5114503816793893,6.435114503816794,0.4740519287109375,0.031124621582031248,9.282319836425781,30.741764705882353
2025-10-15T20:00:54.986148,6.244274809160306,0.4122137404580153,6.305343511450381,0.4955997436523437,0.0718260498046875,9.112331518554686,30.741764705882353
2025-10-15T20:00:55.002924,5.33587786259542,0.015267175572519083,6.343511450381679,0.411802685546875,0.105344873046875,9.169792358398437,30.741764705882353
2025-10-15T20:00:55.019695,4.396946564885496,-1.099236641221374,6.305343511450381,0.507570751953125,0.143652099609375,9.14824454345703,30.741764705882353
2025-10-15T20:00:55.036471,3.2977099236641223,-1.5114503816793894,6.312977099236641,0.5027823486328125,0.13407529296874998,9.251195214843749,30.741764705882353
2025-10-15T20:00:55.053245,2.1755725190839694,-1.3587786259541985,6.206106870229007,0.5482721801757812,0.14604630126953125,9.244012609863281,30.741764705882353
2025-10-15T20:00:55.070022,0.9541984732824428,-1.8549618320610688,6.6183206106870225,0.44532150878906246,0.1197100830078125,9.229647399902344,30.64764705882353
2025-10-15T20:00:55.086813,-0.15267175572519084,-2.3206106870229006,6.625954198473282,0.5339069702148437,0.1580173095703125,9.330203869628905,30.69470588235294
2025-10-15T20:00:55.103600,-1.1374045801526718,-2.4885496183206106,6.572519083969466,0.4955997436523437,0.11252747802734374,9.275137231445312,30.69470588235294
2025-10-15T20:00:55.120370,-2.381679389312977,-2.564885496183206,6.816793893129771,0.5363011718749999,0.277727392578125,9.241618408203124,30.69470588235294
2025-10-15T20:00:55.137145,-3.1526717557251906,-2.6946564885496183,6.893129770992366,0.5602431884765625,0.19153613281249998,9.41639512939453,30.60058823529412
2025-10-15T20:00:55.154143,-4.251908396946565,-2.7709923664122136,7.122137404580153,0.6105214233398437,0.1388636962890625,9.421183532714844,30.69470588235294
2025-10-15T20:00:55.170940,-5.061068702290076,-2.8091603053435112,7.221374045801527,0.6584054565429687,0.11731588134765625,9.473855969238281,30.69470588235294
2025-10-15T20:00:55.187717,-5.816793893129771,-2.763358778625954,7.114503816793893,0.6703764648437499,0.10773907470703124,9.466673364257812,30.69470588235294
2025-10-15T20:00:55.204496,-6.267175572519084,-2.381679389312977,7.145038167938932,0.6272808349609375,0.09337386474609374,9.528922607421874,30.64764705882353
2025-10-15T20:00:55.221269,-6.770992366412214,-2.068702290076336,7.251908396946565,0.6153098266601562,0.05746083984375,9.428366137695312,30.64764705882353
2025-10-15T20:00:55.238042,-7.290076335877862,-2.068702290076336,7.183206106870229,0.6153098266601562,0.03591302490234375,9.4618849609375,30.741764705882353
2025-10-15T20:00:55.254814,-7.213740458015267,-1.717557251908397,7.297709923664122,0.6368576416015624,0.0430956298828125,9.579200842285156,30.64764705882353
2025-10-15T20:00:55.271610,-7.435114503816794,-0.9770992366412213,7.305343511450381,0.6823474731445313,-0.00718260498046875,9.698910925292969,30.64764705882353
2025-10-15T20:00:55.288400,-7.435114503816794,-0.35877862595419846,6.824427480916031,0.6775590698242188,-0.0383072265625,9.469067565917967,30.741764705882353
2025-10-15T20:00:55.305181,-7.129770992366412,0.08396946564885496,6.854961832061068,0.6177040283203125,-0.047884033203124995,9.586383447265625,30.741764705882353
2025-10-15T20:00:55.321954,-6.984732824427481,0.32061068702290074,6.595419847328245,0.679953271484375,-0.033518823242187495,9.744400756835937,30.64764705882353
2025-10-15T20:00:55.338740,-6.374045801526718,1.1068702290076335,6.3893129770992365,0.7110778930664062,-0.06703764648437499,9.639055883789062,30.64764705882353
2025-10-15T20:00:55.355523,-5.633587786259542,1.7557251908396947,6.068702290076335,0.6775590698242188,-0.08858546142578125,9.593566052246093,30.69470588235294
2025-10-15T20:00:55.372299,-5.206106870229007,2.0,5.709923664122138,0.7015010864257812,-0.15322890625,9.543287817382812,30.788823529411765
2025-10-15T20:00:55.389073,-4.358778625954199,2.4427480916030535,5.3816793893129775,0.6009446166992187,-0.10773907470703124,9.617508068847656,30.69470588235294
2025-10-15T20:00:55.405842,-3.7022900763358777,2.8244274809160306,5.137404580152672,0.46686932373046874,-0.201112939453125,9.545682019042967,30.69470588235294
2025-10-15T20:00:55.422615,-2.9770992366412212,3.33587786259542,4.786259541984733,0.6272808349609375,-0.21068974609375,9.469067565917967,30.69470588235294
2025-10-15T20:00:55.439387,-2.068702290076336,3.5801526717557253,4.450381679389313,0.5626373901367188,-0.15322890625,9.495403784179686,30.788823529411765
2025-10-15T20:00:55.456158,-1.2290076335877862,3.6030534351145036,4.320610687022901,0.5746083984375,-0.16998831787109375,9.435548742675781,30.69470588235294
2025-10-15T20:00:55.472967,-0.3282442748091603,3.816793893129771,4.022900763358779,0.5243301635742187,-0.17956512451171874,9.449913952636718,30.64764705882353
2025-10-15T20:00:55.489762,0.44274809160305345,4.038167938931298,3.717557251908397,0.5722141967773438,-0.19393033447265623,9.457096557617186,30.64764705882353
2025-10-15T20:00:55.506591,1.3129770992366412,3.7022900763358777,3.648854961832061,0.5410895751953124,-0.2657563842773437,9.287108239746093,30.69470588235294
2025-10-15T20:00:55.523379,2.068702290076336,3.6259541984732824,3.0229007633587788,0.5602431884765625,-0.23702596435546874,9.478644372558593,30.788823529411765
2025-10-15T20:00:55.540157,2.66412213740458,3.7099236641221376,3.015267175572519,0.47884033203125,-0.01915361328125,9.282319836425781,30.788823529411765
2025-10-15T20:00:55.556934,3.267175572519084,3.351145038167939,2.7938931297709924,0.49799394531249996,-0.10773907470703124,9.222464794921875,30.69470588235294
2025-10-15T20:00:55.573714,3.3282442748091605,3.053435114503817,2.7709923664122136,0.4908113403320312,-0.1197100830078125,9.33978067626953,30.69470588235294
2025-10-15T20:00:55.590489,3.7557251908396947,2.4732824427480917,2.3893129770992365,0.42377369384765623,-0.06464344482421874,9.342174877929686,30.69470588235294
2025-10-15T20:00:55.607262,3.732824427480916,2.183206106870229,2.4198473282442747,0.3327940307617187,-0.062249243164062495,9.138667736816405,30.553529411764707
2025-10-15T20:00:55.624043,3.7404580152671754,1.7938931297709924,2.2977099236641223,0.3064578125,0.14604630126953125,9.143456140136719,30.741764705882353
2025-10-15T20:00:55.640821,3.6946564885496183,1.1450381679389312,2.145038167938931,0.469263525390625,0.0430956298828125,9.14824454345703,30.741764705882353
2025-10-15T20:00:55.657652,3.4427480916030535,0.4580152671755725,2.3587786259541983,0.45489831542968745,0.03591302490234375,9.064447485351561,30.788823529411765
2025-10-15T20:00:55.674449,2.984732824427481,-0.21374045801526717,2.427480916030534,0.4836287353515625,0.047884033203124995,9.088389501953124,30.788823529411765
2025-10-15T20:00:55.691246,2.7404580152671754,-0.732824427480916,2.427480916030534,0.4644751220703125,0.02633621826171875,9.121908325195312,30.788823529411765
2025-10-15T20:00:55.708026,2.053435114503817,-1.213740458015267,2.3893129770992365,0.469263525390625,0.08140285644531249,9.131485131835937,30.788823529411765
2025-10-15T20:00:55.724814,1.5572519083969465,-2.1374045801526718,2.5267175572519083,0.5003881469726562,0.05746083984375,9.18655177001953,30.741764705882353
2025-10-15T20:00:55.741601,0.7709923664122137,-2.885496183206107,2.732824427480916,0.3495534423828125,0.05027823486328125,9.129090930175781,30.741764705882353
2025-10-15T20:00:55.758376,1.2595419847328244,-2.053435114503817,2.8244274809160306,0.49320554199218747,0.19632453613281248,8.769960681152343,30.741764705882353
2025-10-15T20:00:55.775152,-0.3053435114503817,-5.129770992366412,3.114503816793893,0.5722141967773438,0.17238251953125,9.244012609863281,30.741764705882353
2025-10-15T20:00:55.791927,-1.0,-4.320610687022901,3.50381679389313,0.584185205078125,0.1484405029296875,9.289502441406249,30.741764705882353
2025-10-15T20:00:55.808700,-1.816793893129771,-4.091603053435114,3.3740458015267176,0.5219359619140624,0.0430956298828125,9.239224206542968,30.741764705882353
2025-10-15T20:00:55.825475,-3.1603053435114505,-4.893129770992366,3.7022900763358777,0.612915625,0.11252747802734374,9.188945971679686,30.69470588235294
2025-10-15T20:00:55.842249,-3.7938931297709924,-5.145038167938932,3.7099236641221376,0.63206923828125,0.08140285644531249,9.356540087890625,30.69470588235294
2025-10-15T20:00:55.859026,-4.6106870229007635,-4.450381679389313,4.030534351145038,0.6871358764648438,0.0143652099609375,9.445125549316407,30.69470588235294
2025-10-15T20:00:55.875829,-5.0,-4.091603053435114,3.931297709923664,0.7110778930664062,0.05985504150390625,9.358934289550781,30.69470588235294
2025-10-15T20:00:55.892614,-5.7251908396946565,-4.106870229007634,3.969465648854962,0.6105214233398437,0.0047884033203125,9.409212524414063,30.741764705882353
2025-10-15T20:00:55.909390,-6.5038167938931295,-4.412213740458015,4.129770992366412,0.6344634399414062,0.0143652099609375,9.509768994140625,30.741764705882353
2025-10-15T20:00:55.926168,-6.427480916030534,-3.50381679389313,4.137404580152672,0.7134720947265625,-0.0143652099609375,9.449913952636718,30.64764705882353
2025-10-15T20:00:55.942940,-6.67175572519084,-2.8091603053435112,4.114503816793893,0.6967126831054687,0.0143652099609375,9.543287817382812,30.741764705882353
2025-10-15T20:00:55.959713,-7.099236641221374,-2.6564885496183206,4.022900763358779,0.6607996582031249,0.00718260498046875,9.469067565917967,30.741764705882353
2025-10-15T20:00:55.976750,-6.801526717557252,-2.1526717557251906,4.061068702290076,0.7445967163085937,-0.296881005859375,9.612719665527344,30.741764705882353
2025-10-15T20:00:55.993565,-6.580152671755725,-1.6564885496183206,3.732824427480916,0.679953271484375,-0.296881005859375,9.60793126220703,30.69470588235294
2025-10-15T20:00:56.010371,-6.114503816793893,-0.6641221374045801,3.564885496183206,0.6488286499023437,-0.16041151123046873,9.581595043945311,30.69470588235294
2025-10-15T20:00:56.027160,-3.931297709923664,-0.32061068702290074,3.282442748091603,0.6823474731445313,-0.00718260498046875,9.354145886230468,30.69470588235294
2025-10-15T20:00:56.043934,-5.061068702290076,0.2595419847328244,3.0229007633587788,0.7517793212890624,-0.02633621826171875,9.504980590820312,30.741764705882353
2025-10-15T20:00:56.060708,-4.580152671755725,1.213740458015267,2.7786259541984735,0.6488286499023437,-0.17238251953125,9.639055883789062,30.64764705882353
2025-10-15T20:00:56.077513,-5.8396946564885495,1.8396946564885497,2.2900763358778624,0.6009446166992187,-0.06703764648437499,9.373299499511718,30.64764705882353
2025-10-15T20:00:56.094300,-2.954198473282443,2.2595419847328246,2.1068702290076335,0.612915625,-0.1867477294921875,9.464279162597656,30.741764705882353
2025-10-15T20:00:56.111075,-2.480916030534351,2.816793893129771,1.8854961832061068,0.6751648681640625,-0.13168109130859373,9.4618849609375,30.69470588235294
2025-10-15T20:00:56.127856,-1.381679389312977,3.618320610687023,1.5572519083969465,0.63206923828125,-0.16759411621093748,9.521740002441407,30.788823529411765
2025-10-15T20:00:56.144637,-0.8625954198473282,4.213740458015267,1.2748091603053435,0.6967126831054687,-0.01915361328125,9.236830004882812,30.69470588235294
2025-10-15T20:00:56.161424,-0.1984732824427481,4.183206106870229,1.0229007633587786,0.6440402465820312,-0.1149216796875,9.04050546875,30.69470588235294
2025-10-15T20:00:56.178197,0.3053435114503817,4.633587786259542,0.8015267175572519,0.488417138671875,-0.11013327636718749,9.258377819824219,30.788823529411765
2025-10-15T20:00:56.194970,0.366412213740458,5.358778625954199,0.5572519083969466,0.5195417602539062,-0.10295067138671875,9.133879333496093,30.741764705882353
2025-10-15T20:00:56.211742,0.9312977099236641,5.061068702290076,0.22137404580152673,0.5698199951171875,-0.0526724365234375,9.17458076171875,30.64764705882353
2025-10-15T20:00:56.228515,0.7404580152671756,4.824427480916031,0.5572519083969466,0.5770026000976562,0.0143652099609375,9.327809667968749,30.64764705882353
2025-10-15T20:00:56.245286,0.8320610687022901,4.763358778625954,0.2900763358778626,0.5793968017578125,0.02154781494140625,9.124302526855468,30.835882352941177
2025-10-15T20:00:56.262063,0.7022900763358778,4.916030534351145,0.21374045801526717,0.5793968017578125,-0.047884033203124995,9.18655177001953,30.741764705882353
2025-10-15T20:00:56.278872,0.5572519083969466,4.465648854961832,0.5190839694656488,0.603338818359375,0.028730419921875,9.102754711914063,30.69470588235294
2025-10-15T20:00:56.295666,0.45038167938931295,3.7404580152671754,0.5954198473282443,0.5195417602539062,0.028730419921875,9.169792358398437,30.788823529411765
2025-10-15T20:00:56.312446,-1.900763358778626,3.50381679389313,0.7404580152671756,0.565031591796875,0.12449848632812499,9.234435803222656,30.69470588235294
2025-10-15T20:00:56.330300,-1.9389312977099236,3.427480916030534,0.7633587786259542,0.4836287353515625,0.08379705810546874,9.085995300292968,30.64764705882353
2025-10-15T20:00:56.348205,-0.45038167938931295,2.7786259541984735,0.9007633587786259,0.4955997436523437,-0.01915361328125,9.167398156738281,30.69470588235294
2025-10-15T20:00:56.365014,-0.6412213740458015,3.8931297709923665,1.1221374045801527,0.565031591796875,0.06943184814453125,9.215282189941405,30.64764705882353
2025-10-15T20:00:56.381784,-0.7862595419847328,1.3969465648854962,1.1755725190839694,0.4908113403320312,0.13168109130859373,9.33978067626953,30.64764705882353
2025-10-15T20:00:56.398591,-1.0229007633587786,1.0763358778625953,1.3129770992366412,0.5434837768554687,0.01915361328125,9.313444458007812,30.64764705882353
2025-10-15T20:00:56.415390,-1.6106870229007633,0.6793893129770993,1.3435114503816794,0.5961562133789062,-0.143652099609375,9.244012609863281,30.788823529411765
2025-10-15T20:00:56.432165,-1.7557251908396947,0.09923664122137404,1.4885496183206106,0.5578489868164063,0.031124621582031248,9.425971936035156,30.788823529411765
2025-10-15T20:00:56.448939,-1.8778625954198473,-0.21374045801526717,1.6030534351145038,0.5147533569335937,-0.03591302490234375,9.33978067626953,30.69470588235294
2025-10-15T20:00:56.465714,-1.8473282442748091,-0.4732824427480916,1.8091603053435115,0.5219359619140624,-0.105344873046875,9.330203869628905,30.788823529411765
2025-10-15T20:00:56.482489,-1.816793893129771,-1.4809160305343512,3.877862595419847,0.6751648681640625,0.08858546142578125,9.222464794921875,30.69470588235294
2025-10-15T20:00:56.499275,-2.633587786259542,-1.6870229007633588,2.0,0.46686932373046874,-0.08858546142578125,9.540893615722656,30.69470588235294
2025-10-15T20:00:56.516115,-3.0229007633587788,-1.5114503816793894,1.7786259541984732,0.6081272216796875,0.05027823486328125,9.60793126220703,30.64764705882353
2025-10-15T20:00:56.532903,-2.717557251908397,-1.5038167938931297,1.7099236641221374,0.5434837768554687,-0.05985504150390625,9.60793126220703,30.741764705882353
2025-10-15T20:00:56.549679,-3.450381679389313,-2.1755725190839694,3.900763358778626,0.565031591796875,0.1388636962890625,9.49300958251953,30.788823529411765
2025-10-15T20:00:56.566453,-3.66412213740458,-2.816793893129771,1.702290076335878,0.5458779785156249,0.028730419921875,9.591171850585937,30.788823529411765
2025-10-15T20:00:56.583260,-4.038167938931298,-2.5114503816793894,1.6259541984732824,0.5913678100585937,0.13646949462890623,9.514557397460937,30.69470588235294
2025-10-15T20:00:56.600049,-4.67175572519084,-2.3740458015267176,1.5954198473282444,0.5482721801757812,0.0383072265625,9.469067565917967,30.64764705882353
2025-10-15T20:00:56.616823,-4.969465648854962,-2.7709923664122136,1.3740458015267176,0.5482721801757812,0.0718260498046875,9.449913952636718,30.64764705882353
2025-10-15T20:00:56.633606,-5.702290076335878,-3.351145038167939,1.4427480916030535,0.5434837768554687,0.033518823242187495,9.418789331054686,30.741764705882353
2025-10-15T20:00:56.650386,-5.923664122137405,-2.877862595419847,1.3053435114503817,0.6440402465820312,0.0,9.564835632324218,30.64764705882353
2025-10-15T20:00:56.667162,-6.3816793893129775,-2.6259541984732824,1.3053435114503817,0.6416460449218749,0.0047884033203125,9.483432775878907,30.741764705882353
2025-10-15T20:00:56.683937,-7.030534351145038,-3.0763358778625953,1.213740458015267,0.5051765502929687,0.01915361328125,9.452308154296874,30.64764705882353
2025-10-15T20:00:56.700713,-6.633587786259542,-3.1755725190839694,0.9847328244274809,0.5889736083984375,-0.0718260498046875,9.557653027343749,30.69470588235294
2025-10-15T20:00:56.717489,-6.656488549618321,-2.6030534351145036,1.099236641221374,0.6057330200195312,-0.07900865478515624,9.591171850585937,30.60058823529412
2025-10-15T20:00:56.734270,-6.412213740458015,-1.786259541984733,1.1450381679389312,0.6464344482421874,-0.040701428222656245,9.488221179199218,30.69470588235294
2025-10-15T20:00:56.751043,-6.137404580152672,-2.2290076335877864,1.0687022900763359,0.603338818359375,-0.0909796630859375,9.418789331054686,30.69470588235294
2025-10-15T20:00:56.767820,-5.709923664122138,-1.6106870229007633,1.1984732824427482,0.6416460449218749,-0.16280571289062498,9.514557397460937,30.69470588235294
2025-10-15T20:00:56.784601,-4.984732824427481,-1.1984732824427482,1.1221374045801527,0.6679822631835937,-0.1580173095703125,9.605537060546874,30.788823529411765
2025-10-15T20:00:56.801381,-4.251908396946565,-0.7404580152671756,1.3053435114503817,0.59376201171875,-0.2346317626953125,9.466673364257812,30.64764705882353
2025-10-15T20:00:56.818158,-3.1526717557251906,-1.0229007633587786,1.465648854961832,0.5913678100585937,-0.17477672119140625,9.435548742675781,30.741764705882353
2025-10-15T20:00:56.835044,-2.1603053435114505,-0.5801526717557252,1.3206106870229009,0.488417138671875,-0.1388636962890625,9.363722692871093,30.69470588235294
2025-10-15T20:00:56.851838,-1.1755725190839694,-1.9541984732824427,1.099236641221374,0.4644751220703125,-0.15083470458984374,9.325415466308593,30.788823529411765
2025-10-15T20:00:56.868615,-0.007633587786259542,0.20610687022900764,1.1526717557251909,0.622492431640625,-0.19393033447265623,9.234435803222656,30.69470588235294
2025-10-15T20:00:56.885396,1.0763358778625953,0.022900763358778626,0.8015267175572519,0.584185205078125,-0.18914193115234373,9.17458076171875,30.835882352941177
2025-10-15T20:00:56.902178,1.8854961832061068,-0.09923664122137404,0.7709923664122137,0.5315127685546874,-0.15083470458984374,9.315838659667968,30.64764705882353
2025-10-15T20:00:56.918953,2.816793893129771,0.1450381679389313,0.549618320610687,0.5746083984375,-0.009576806640625,9.198522778320312,30.741764705882353
2025-10-15T20:00:56.935729,3.8244274809160306,-0.015267175572519083,0.13740458015267176,0.5315127685546874,-0.27293898925781246,9.0788126953125,30.741764705882353
2025-10-15T20:00:56.954233,4.5038167938931295,-0.5877862595419847,-1.9465648854961832,0.5602431884765625,-0.14604630126953125,9.042899670410156,30.741764705882353
2025-10-15T20:00:56.971085,5.137404580152672,-0.7633587786259542,-0.20610687022900764,0.488417138671875,-0.13168109130859373,9.088389501953124,30.69470588235294
2025-10-15T20:00:56.987891,5.732824427480916,-1.0076335877862594,-0.5648854961832062,0.5051765502929687,-0.17956512451171874,9.0021982421875,30.788823529411765
2025-10-15T20:00:57.004675,5.977099236641221,-1.1603053435114503,-0.7175572519083969,0.5267243652343749,-0.09576806640624999,9.09796630859375,30.741764705882353
2025-10-15T20:00:57.021452,6.221374045801527,-1.8244274809160306,-0.7709923664122137,0.5195417602539062,-0.2059013427734375,9.18655177001953,30.64764705882353
2025-10-15T20:00:57.038228,6.206106870229007,-2.0381679389312977,-0.732824427480916,0.5339069702148437,-0.14125789794921875,9.291896643066405,30.835882352941177
2025-10-15T20:00:57.055010,6.259541984732825,-2.1297709923664123,-0.8015267175572519,0.5003881469726562,-0.05746083984375,9.497797985839844,30.741764705882353
2025-10-15T20:00:57.071789,5.358778625954199,-2.267175572519084,-0.7938931297709924,0.603338818359375,0.06943184814453125,9.399635717773437,30.64764705882353
2025-10-15T20:00:57.088567,4.770992366412214,-2.16793893129771,-0.6946564885496184,0.7541735229492187,0.0430956298828125,9.423577734375,30.788823529411765
2025-10-15T20:00:57.105343,3.3740458015267176,-2.2595419847328246,-0.549618320610687,0.47884033203125,0.03591302490234375,9.373299499511718,30.69470588235294
2025-10-15T20:00:57.122117,2.2900763358778624,-2.1755725190839694,-0.2748091603053435,0.7541735229492187,0.02633621826171875,9.349357482910156,30.788823529411765
2025-10-15T20:00:57.138893,1.1908396946564885,-1.6412213740458015,1.9389312977099236,0.47884033203125,0.1484405029296875,9.421183532714844,30.69470588235294
2025-10-15T20:00:57.155672,-0.5419847328244275,-1.4122137404580153,0.16793893129770993,0.6871358764648438,0.17238251953125,9.392453112792968,30.69470588235294
2025-10-15T20:00:57.172447,-1.7328244274809161,-0.9389312977099237,0.16793893129770993,0.4860229370117187,0.19871873779296872,9.485826977539062,30.69470588235294
2025-10-15T20:00:57.189261,-3.435114503816794,-0.816793893129771,0.7099236641221374,0.7134720947265625,0.277727392578125,9.605537060546874,30.741764705882353
2025-10-15T20:00:57.206049,-5.015267175572519,0.030534351145038167,0.7938931297709924,0.6967126831054687,0.2561795776367187,9.411606726074218,30.64764705882353
2025-10-15T20:00:57.222827,-6.687022900763359,0.2748091603053435,1.4961832061068703,0.6560112548828124,0.2442085693359375,9.485826977539062,30.741764705882353
2025-10-15T20:00:57.239602,-8.351145038167939,0.48854961832061067,1.6412213740458015,0.6081272216796875,0.258573779296875,9.275137231445312,30.69470588235294
2025-10-15T20:00:57.256380,-9.763358778625955,1.0076335877862594,1.6564885496183206,0.7230489013671875,0.24660277099609373,9.2320416015625,30.60058823529412
2025-10-15T20:00:57.273208,-10.80916030534351,1.7786259541984732,1.916030534351145,0.6177040283203125,0.16998831787109375,9.368511096191405,30.69470588235294
2025-10-15T20:00:57.290024,-11.641221374045802,2.3587786259541983,2.2900763358778624,0.679953271484375,0.12210428466796874,9.320627062988281,30.741764705882353
2025-10-15T20:00:57.306827,-12.129770992366412,2.7480916030534353,2.145038167938931,0.6248866333007812,0.07422025146484375,9.337386474609374,30.741764705882353
2025-10-15T20:00:57.323623,-12.290076335877863,3.2595419847328246,2.1526717557251906,0.6368576416015624,0.00239420166015625,9.296685046386719,30.69470588235294
2025-10-15T20:00:57.340405,-11.82442748091603,3.7480916030534353,2.2442748091603053,0.6153098266601562,-0.047884033203124995,9.294290844726563,30.69470588235294
2025-10-15T20:00:57.357221,-10.908396946564885,4.152671755725191,1.9312977099236641,0.6584054565429687,-0.143652099609375,9.234435803222656,30.69470588235294
2025-10-15T20:00:57.374069,-9.946564885496183,4.32824427480916,1.5954198473282444,0.6296750366210937,-0.12449848632812499,9.291896643066405,30.741764705882353
2025-10-15T20:00:57.390841,-8.251908396946565,4.679389312977099,1.3511450381679388,0.6200982299804687,-0.3016694091796875,9.37808790283203,30.741764705882353
2025-10-15T20:00:57.407641,-6.419847328244275,5.152671755725191,0.9312977099236641,0.5793968017578125,-0.36631285400390623,9.318232861328125,30.741764705882353
2025-10-15T20:00:57.424475,-4.259541984732825,5.419847328244275,0.6870229007633588,0.5602431884765625,-0.4213794921875,9.3086560546875,30.69470588235294
2025-10-15T20:00:57.441310,-1.984732824427481,5.404580152671755,0.4961832061068702,0.7350199096679687,-0.4429273071289062,9.394847314453125,30.741764705882353
2025-10-15T20:00:57.458145,-1.9389312977099236,5.2748091603053435,1.8778625954198473,0.5506663818359374,-0.48123453369140623,9.306261853027344,30.69470588235294
2025-10-15T20:00:57.475048,2.480916030534351,5.2748091603053435,-0.3282442748091603,0.5482721801757812,-0.5267243652343749,9.469067565917967,30.64764705882353
2025-10-15T20:00:57.491905,4.801526717557252,5.3893129770992365,-0.8473282442748091,0.603338818359375,-0.5458779785156249,9.476250170898437,30.69470588235294
2025-10-15T20:00:57.508768,6.740458015267175,5.061068702290076,-1.0076335877862594,0.4836287353515625,-0.30885201416015623,9.497797985839844,30.60058823529412
2025-10-15T20:00:57.525612,8.435114503816793,4.755725190839694,-1.2290076335877862,0.4429273071289062,-0.4477157104492187,9.282319836425781,30.835882352941177
2025-10-15T20:00:57.542457,9.49618320610687,4.106870229007634,-1.7786259541984732,0.39743747558593745,-0.38307226562499996,9.392453112792968,30.69470588235294
2025-10-15T20:00:57.559304,10.725190839694656,4.137404580152672,-2.0610687022900764,0.4261678955078125,-0.43574470214843747,9.332598071289063,30.741764705882353
2025-10-15T20:00:57.576149,11.419847328244275,2.145038167938931,-2.9923664122137406,0.39743747558593745,-0.26336218261718747,9.10993731689453,30.741764705882353
2025-10-15T20:00:57.592998,13.511450381679388,0.7938931297709924,-3.7251908396946565,0.32082302246093747,-0.17956512451171874,9.521740002441407,30.69470588235294
2025-10-15T20:00:57.609842,14.045801526717558,1.8931297709923665,-4.67175572519084,0.34237083740234375,0.031124621582031248,9.342174877929686,30.741764705882353
2025-10-15T20:00:57.626694,15.404580152671755,-0.8549618320610687,-5.099236641221374,0.3112462158203125,-0.062249243164062495,9.363722692871093,30.741764705882353
2025-10-15T20:00:57.643535,15.396946564885496,-2.33587786259542,-5.480916030534351,0.373495458984375,-0.023942016601562498,9.464279162597656,30.788823529411765
2025-10-15T20:00:57.660379,14.854961832061068,-3.6412213740458017,-5.717557251908397,0.3902548706054687,0.2753331909179687,9.428366137695312,30.741764705882353
2025-10-15T20:00:57.677273,13.526717557251908,-3.946564885496183,-5.419847328244275,0.49320554199218747,0.239420166015625,9.7683427734375,30.60058823529412
2025-10-15T20:00:57.694136,10.511450381679388,-4.251908396946565,-5.267175572519084,0.5147533569335937,0.4333505004882812,9.617508068847656,30.741764705882353
2025-10-15T20:00:57.711006,7.755725190839694,-4.801526717557252,-4.412213740458015,0.5291185668945312,0.5003881469726562,9.435548742675781,30.60058823529412
2025-10-15T20:00:57.727852,4.0458015267175576,-5.908396946564886,-3.5343511450381677,0.5506663818359374,0.603338818359375,9.605537060546874,30.69470588235294
2025-10-15T20:00:57.744699,1.9236641221374047,-6.068702290076335,-2.786259541984733,0.6512228515624999,0.7206546997070312,9.509768994140625,30.835882352941177
2025-10-15T20:00:57.761546,-4.312977099236641,-5.893129770992366,-1.8702290076335877,0.6296750366210937,0.6871358764648438,9.617508068847656,30.64764705882353
2025-10-15T20:00:57.778389,-9.17557251908397,-3.9160305343511452,-1.2900763358778626,0.74699091796875,0.6871358764648438,9.533711010742186,30.741764705882353
2025-10-15T20:00:57.795229,-13.541984732824428,-6.3816793893129775,-0.549618320610687,0.5363011718749999,0.8283937744140625,9.641450085449218,30.64764705882353
2025-10-15T20:00:57.812080,-18.03053435114504,-6.091603053435114,0.5877862595419847,0.689530078125,0.6607996582031249,9.746794958496093,30.69470588235294
2025-10-15T20:00:57.828938,-21.87786259541985,-5.145038167938932,0.9465648854961832,0.6560112548828124,0.6943184814453125,9.737218151855469,30.741764705882353
2025-10-15T20:00:57.845790,-25.114503816793892,-4.526717557251908,1.4045801526717556,0.7805097412109374,0.4644751220703125,9.356540087890625,30.60058823529412
2025-10-15T20:00:57.862633,-27.603053435114504,-3.801526717557252,1.83206106870229,0.7685387329101562,0.3950432739257812,9.543287817382812,30.69470588235294
2025-10-15T20:00:57.879542,-28.931297709923665,-2.068702290076336,0.03816793893129771,0.7781155395507812,0.3136404174804687,9.749189160156249,30.64764705882353
2025-10-15T20:00:57.896399,-29.717557251908396,-0.5877862595419847,1.7633587786259541,0.7326257080078125,0.09816226806640624,9.507374792480467,30.69470588235294
2025-10-15T20:00:57.913277,-28.83206106870229,0.17557251908396945,1.6717557251908397,0.7254431030273437,0.023942016601562498,9.37808790283203,30.64764705882353
2025-10-15T20:00:57.930112,-27.870229007633586,0.816793893129771,1.3282442748091603,0.737414111328125,-0.15562310791015624,9.330203869628905,30.64764705882353
2025-10-15T20:00:57.946949,-27.33587786259542,2.3740458015267176,0.8778625954198473,0.7781155395507812,-0.29448680419921874,9.26316622314453,30.69470588235294
2025-10-15T20:00:57.963776,-22.16030534351145,3.5801526717557253,0.2595419847328244,0.689530078125,-0.49799394531249996,9.172186560058593,30.741764705882353
2025-10-15T20:00:57.980612,-18.229007633587788,4.419847328244275,-0.366412213740458,0.718260498046875,-0.47884033203125,9.062053283691405,30.69470588235294
2025-10-15T20:00:57.997446,-14.076335877862595,4.580152671755725,-0.8091603053435115,0.6536170532226562,-0.9145850341796874,9.042899670410156,30.788823529411765
2025-10-15T20:00:58.014279,-11.633587786259541,5.732824427480916,-1.5190839694656488,0.612915625,-0.8307879760742187,9.0788126953125,30.64764705882353
2025-10-15T20:00:58.031158,-4.732824427480916,6.290076335877862,-2.564885496183206,0.5770026000976562,-0.7709329345703124,9.018957653808593,30.69470588235294
2025-10-15T20:00:58.048009,-1.9389312977099236,6.786259541984733,-3.33587786259542,0.603338818359375,-0.8547299926757812,8.978256225585938,30.64764705882353
2025-10-15T20:00:58.064846,4.061068702290076,6.9465648854961835,-4.114503816793893,0.6081272216796875,-0.8164227661132812,8.992621435546875,30.741764705882353
2025-10-15T20:00:58.081687,8.213740458015268,7.236641221374046,-4.763358778625954,0.5410895751953124,-0.8451531860351562,8.971073620605468,30.69470588235294
2025-10-15T20:00:58.098522,11.786259541984732,7.0534351145038165,-5.7251908396946565,0.5003881469726562,-0.7541735229492187,8.935160595703124,30.64764705882353
2025-10-15T20:00:58.115377,14.931297709923664,7.0,-6.603053435114504,0.36152445068359373,-0.6655880615234374,8.961496813964843,30.64764705882353
2025-10-15T20:00:58.132248,18.282442748091604,6.206106870229007,-7.984732824427481,0.28490999755859375,-0.4285620971679687,8.827421520996094,30.69470588235294
2025-10-15T20:00:58.149108,21.297709923664122,5.129770992366412,-9.022900763358779,0.23223756103515625,-0.41898529052734373,8.772354882812499,30.741764705882353
2025-10-15T20:00:58.165952,23.045801526717558,3.7786259541984735,-7.885496183206107,0.45489831542968745,-0.2561795776367187,8.951920007324219,30.788823529411765
2025-10-15T20:00:58.182769,24.083969465648856,3.2900763358778624,-10.320610687022901,0.4525041137695312,-0.12689268798828124,8.949525805664061,30.69470588235294
2025-10-15T20:00:58.199640,24.66412213740458,2.7480916030534353,-10.396946564885496,0.3758896606445312,-0.023942016601562498,9.09796630859375,30.741764705882353
2025-10-15T20:00:58.216515,23.923664122137403,1.6793893129770991,-10.19083969465649,0.29448680419921874,0.0383072265625,9.026140258789061,30.69470588235294
2025-10-15T20:00:58.233423,22.69465648854962,0.08396946564885496,-11.67175572519084,0.38786066894531246,0.10773907470703124,9.09796630859375,30.64764705882353
2025-10-15T20:00:58.250249,21.022900763358777,-0.9770992366412213,-9.122137404580153,0.3758896606445312,0.22026655273437498,9.387664709472656,30.788823529411765
2025-10-15T20:00:58.267134,18.549618320610687,-1.6641221374045803,-8.251908396946565,0.4740519287109375,0.34715924072265625,9.41639512939453,30.835882352941177
2025-10-15T20:00:58.284012,15.290076335877863,-2.564885496183206,-7.312977099236641,0.34715924072265625,0.5339069702148437,9.361328491210937,30.69470588235294
2025-10-15T20:00:58.300905,11.49618320610687,-3.687022900763359,-6.374045801526718,0.47884033203125,0.6296750366210937,9.241618408203124,30.835882352941177
2025-10-15T20:00:58.317807,9.641221374045802,-4.9465648854961835,-5.3816793893129775,0.6153098266601562,0.699106884765625,9.45470235595703,30.69470588235294
2025-10-15T20:00:58.334647,3.183206106870229,-5.312977099236641,-4.442748091603053,0.32082302246093747,0.7541735229492187,9.464279162597656,30.64764705882353
2025-10-15T20:00:58.351475,-0.9312977099236641,-6.351145038167939,-3.3969465648854964,0.5985504150390625,0.9074024291992187,9.758765966796874,30.69470588235294
2025-10-15T20:00:58.368305,-3.9389312977099236,-6.984732824427481,-2.145038167938931,0.7254431030273437,0.8355763793945312,9.832986218261718,30.882941176470588
2025-10-15T20:00:58.385140,-11.16793893129771,-7.366412213740458,-1.4885496183206106,0.7230489013671875,0.948103857421875,9.90241806640625,30.64764705882353
2025-10-15T20:00:58.401972,-14.908396946564885,-6.938931297709924,-1.0229007633587786,0.8307879760742187,0.7541735229492187,9.631873278808593,30.788823529411765
2025-10-15T20:00:58.418824,-20.27480916030534,-6.244274809160306,-0.03816793893129771,0.8188169677734375,0.5770026000976562,9.65342109375,30.60058823529412
2025-10-15T20:00:58.435674,-23.061068702290076,-5.564885496183206,0.33587786259541985,0.8164227661132812,0.622492431640625,9.80665,30.64764705882353
2025-10-15T20:00:58.452516,-26.00763358778626,-4.702290076335878,0.7557251908396947,0.7206546997070312,0.488417138671875,9.746794958496093,30.788823529411765
2025-10-15T20:00:58.469362,-27.946564885496183,-4.290076335877862,1.1374045801526718,0.8116343627929687,0.3232172241210937,9.471461767578125,30.64764705882353
2025-10-15T20:00:58.486222,-28.129770992366414,-3.7251908396946565,0.9389312977099237,0.6919242797851562,0.18435352783203124,9.502586389160156,30.788823529411765
2025-10-15T20:00:58.503070,-28.610687022900763,-2.9923664122137406,0.8625954198473282,0.63206923828125,0.09816226806640624,9.648632690429688,30.741764705882353
2025-10-15T20:00:58.519916,-27.19083969465649,-2.2900763358778624,0.29770992366412213,0.6440402465820312,0.12210428466796874,9.409212524414063,30.64764705882353
2025-10-15T20:00:58.536761,-25.587786259541986,-1.8396946564885497,-0.061068702290076333,0.5434837768554687,-0.30406361083984373,9.447519750976562,30.60058823529412
2025-10-15T20:00:58.553617,-25.33587786259542,-1.549618320610687,-0.9007633587786259,0.5746083984375,-0.36152445068359373,9.296685046386719,30.64764705882353
2025-10-15T20:00:58.570472,-20.419847328244273,-1.0534351145038168,-1.7786259541984732,0.6272808349609375,-0.4572925170898437,9.399635717773437,30.69470588235294
2025-10-15T20:00:58.587322,-17.129770992366414,-0.3816793893129771,-2.7251908396946565,0.51714755859375,-0.6344634399414062,9.332598071289063,30.741764705882353
2025-10-15T20:00:58.604165,-12.86259541984733,-0.12213740458015267,-3.8473282442748094,0.48123453369140623,-0.6871358764648438,9.294290844726563,30.741764705882353
2025-10-15T20:00:58.621014,-8.908396946564885,-0.24427480916030533,-4.916030534351145,0.5315127685546874,-0.9744400756835937,9.239224206542968,30.788823529411765
2025-10-15T20:00:58.637861,-4.343511450381679,0.1984732824427481,-6.290076335877862,0.4908113403320312,-0.97683427734375,9.227253198242186,30.64764705882353
2025-10-15T20:00:58.654704,0.5190839694656488,0.9007633587786259,-8.022900763358779,0.354341845703125,-0.9959878906249999,9.234435803222656,30.69470588235294
2025-10-15T20:00:58.671558,3.9236641221374047,0.6564885496183206,-9.870229007633588,0.4165910888671875,-1.0271125122070313,9.160215551757812,30.64764705882353
2025-10-15T20:00:58.688433,10.17557251908397,0.5572519083969466,-10.86259541984733,0.5506663818359374,-0.8451531860351562,9.418789331054686,30.69470588235294
2025-10-15T20:00:58.705292,13.740458015267176,1.1603053435114503,-11.572519083969466,0.5961562133789062,-0.6703764648437499,9.428366137695312,30.788823529411765
2025-10-15T20:00:58.722142,17.114503816793892,1.9312977099236641,-12.129770992366412,0.6009446166992187,-0.7062894897460937,9.464279162597656,30.64764705882353
2025-10-15T20:00:58.738989,19.427480916030536,2.3969465648854964,-12.770992366412214,0.5602431884765625,-0.4477157104492187,9.478644372558593,30.788823529411765
2025-10-15T20:00:58.755832,21.12213740458015,3.122137404580153,-13.297709923664122,0.9600748657226562,-1.0558429321289062,9.272743029785156,30.741764705882353
2025-10-15T20:00:58.772685,21.69465648854962,3.2977099236641223,-12.80916030534351,0.7565677246093749,-0.181959326171875,9.507374792480467,30.741764705882353
2025-10-15T20:00:58.789541,22.610687022900763,1.9694656488549618,-12.770992366412214,0.718260498046875,0.00239420166015625,9.406818322753905,30.788823529411765
2025-10-15T20:00:58.806391,23.358778625954198,4.99236641221374,-12.458015267175572,0.9145850341796874,0.00239420166015625,9.421183532714844,30.835882352941177
2025-10-15T20:00:58.823245,19.603053435114504,5.068702290076335,-12.106870229007633,0.6009446166992187,0.29448680419921874,9.150638745117186,30.788823529411765
2025-10-15T20:00:58.840090,17.137404580152673,4.740458015267175,-11.473282442748092,0.6775590698242188,0.4381389038085937,9.344569079589844,30.741764705882353
2025-10-15T20:00:58.856940,13.923664122137405,4.755725190839694,-10.549618320610687,0.6607996582031249,0.44053310546874996,9.409212524414063,30.69470588235294
2025-10-15T20:00:58.873858,9.969465648854962,5.938931297709924,-9.694656488549619,0.7613561279296874,0.4429273071289062,9.248801013183593,30.741764705882353
2025-10-15T20:00:58.890739,6.320610687022901,5.862595419847328,-8.702290076335878,0.6679822631835937,0.5315127685546874,9.191340173339842,30.788823529411765
2025-10-15T20:00:58.907594,1.7938931297709924,5.557251908396947,-7.374045801526718,0.6607996582031249,0.5770026000976562,9.179369165039063,30.741764705882353
2025-10-15T20:00:58.924443,-2.267175572519084,5.435114503816794,-6.137404580152672,0.6368576416015624,0.603338818359375,9.222464794921875,30.741764705882353
2025-10-15T20:00:58.941297,-6.259541984732825,5.511450381679389,-5.068702290076335,0.7134720947265625,0.565031591796875,9.009380847167968,30.741764705882353
