timestamp,gyro_x,gyro_y,gyro_z,acc_x,acc_y,acc_z,temp
2025-10-15T20:02:05.587502,-8.0,-11.274809160305344,4.3816793893129775,0.967257470703125,1.419761584472656,12.061987963867187,30.69470588235294
2025-10-15T20:02:05.606211,-8.13740458015267,-11.885496183206106,0.46564885496183206,2.1164742675781247,-2.540247961425781,10.448296044921875,30.69470588235294
2025-10-15T20:02:05.626458,-11.297709923664122,-6.748091603053435,6.068702290076335,0.6775590698242188,0.24181436767578124,9.730035546875,30.788823529411765
2025-10-15T20:02:05.649397,-4.137404580152672,-7.595419847328245,3.564885496183206,1.3024457031249999,-0.38786066894531246,10.172962854003906,30.741764705882353
2025-10-15T20:02:05.667559,-1.7099236641221374,-6.4961832061068705,3.381679389312977,0.02154781494140625,-0.7445967163085937,9.9215716796875,30.788823529411765
2025-10-15T20:02:05.686871,4.633587786259542,-1.5038167938931297,2.8396946564885495,0.6655880615234374,-0.3327940307617187,11.125855114746093,30.835882352941177
2025-10-15T20:02:05.709410,-3.099236641221374,-2.3282442748091605,4.526717557251908,2.0470424194335934,-1.1659762084960936,10.714052429199219,30.60058823529412
2025-10-15T20:02:05.728858,-1.786259541984733,2.969465648854962,2.1068702290076335,2.8323405639648436,0.033518823242187495,10.759542260742187,30.553529411764707
2025-10-15T20:02:05.746915,-9.541984732824428,5.145038167938932,4.022900763358779,-0.9361328491210937,0.5267243652343749,10.639832177734375,30.788823529411765
2025-10-15T20:02:05.769156,-4.396946564885496,5.893129770992366,5.312977099236641,1.5227122558593749,1.3814543579101561,10.156203442382813,30.835882352941177
2025-10-15T20:02:05.789076,-12.854961832061068,13.534351145038167,4.687022900763359,1.6328455322265625,0.18914193115234373,10.46984385986328,30.741764705882353
2025-10-15T20:02:05.806905,-10.106870229007633,14.458015267175572,4.8396946564885495,0.8259995727539062,0.3902548706054687,10.742782849121093,30.741764705882353
2025-10-15T20:02:05.828770,-20.137404580152673,15.900763358778626,5.0458015267175576,0.5674257934570313,0.023942016601562498,9.548076220703125,30.741764705882353
2025-10-15T20:02:05.849077,-19.47328244274809,15.404580152671755,5.465648854961832,0.7781155395507812,-1.0869675537109373,9.65342109375,30.741764705882353
2025-10-15T20:02:05.866558,-17.603053435114504,17.27480916030534,3.213740458015267,0.3806780639648437,0.3950432739257812,8.44674345703125,30.788823529411765
2025-10-15T20:02:05.888612,-15.709923664122137,16.244274809160306,4.091603053435114,1.3814543579101561,-0.5386953735351562,9.909600671386718,30.741764705882353
2025-10-15T20:02:05.909782,-20.083969465648856,22.977099236641223,3.0076335877862594,1.2138602416992186,0.3447650390625,7.4699091796875,30.69470588235294
2025-10-15T20:02:05.926787,-5.969465648854962,18.16793893129771,0.15267175572519084,0.6200982299804687,-0.47884033203125,8.109161022949218,30.788823529411765
2025-10-15T20:02:05.948963,-6.770992366412214,13.83206106870229,-0.6641221374045801,0.5817910034179687,-0.30406361083984373,7.472303381347656,30.69470588235294
2025-10-15T20:02:05.971005,5.015267175572519,14.381679389312977,-4.816793893129771,0.5578489868164063,-0.737414111328125,6.301538769531249,30.835882352941177
2025-10-15T20:02:05.987912,16.404580152671755,7.229007633587786,-5.9465648854961835,-0.10773907470703124,-0.4525041137695312,7.302315063476562,30.835882352941177
2025-10-15T20:02:06.010092,17.68702290076336,-2.816793893129771,-7.656488549618321,-0.00239420166015625,0.055066638183593745,7.316680273437499,30.741764705882353
2025-10-15T20:02:06.032977,21.748091603053435,-9.335877862595419,-7.221374045801527,1.7693150268554687,-0.055066638183593745,10.366893188476562,30.60058823529412
2025-10-15T20:02:06.050079,20.732824427480917,-0.8320610687022901,-7.870229007633588,0.8738836059570312,0.37828386230468747,8.489839086914062,30.64764705882353
2025-10-15T20:02:06.071949,23.541984732824428,1.3511450381679388,-7.9465648854961835,2.3415292236328122,-1.005564697265625,8.650250598144531,30.741764705882353
2025-10-15T20:02:06.095048,26.595419847328245,-9.595419847328245,-7.572519083969466,-0.8068459594726562,0.8044517578125,8.757989672851561,30.69470588235294
2025-10-15T20:02:06.111928,25.442748091603054,-12.778625954198473,-7.412213740458015,1.1276689819335937,0.5315127685546874,10.826579907226561,30.64764705882353
2025-10-15T20:02:06.133221,15.98473282442748,-11.305343511450381,-4.885496183206107,0.016759411621093748,0.7876923461914062,9.86411083984375,30.69470588235294
2025-10-15T20:02:06.156116,8.374045801526718,-9.49618320610687,-2.351145038167939,0.8475473876953125,0.076614453125,9.878476049804688,30.788823529411765
2025-10-15T20:02:06.172991,-2.763358778625954,-11.305343511450381,1.3129770992366412,1.0558429321289062,1.4532804077148436,9.892841259765625,30.741764705882353
2025-10-15T20:02:06.194292,-11.198473282442748,-16.946564885496183,4.549618320610687,-0.5339069702148437,1.6615759521484375,10.577582934570312,30.788823529411765
2025-10-15T20:02:06.217290,-19.328244274809162,-14.274809160305344,5.526717557251908,0.948103857421875,1.3814543579101561,11.348515869140625,30.69470588235294
2025-10-15T20:02:06.234173,-18.00763358778626,-11.16793893129771,5.656488549618321,1.9752163696289062,-0.7398083129882812,9.89523546142578,30.741764705882353
2025-10-15T20:02:06.255350,-19.83969465648855,-13.213740458015268,6.3816793893129775,2.616862414550781,0.6105214233398437,9.581595043945311,30.741764705882353
2025-10-15T20:02:06.278840,-25.221374045801525,-9.267175572519085,7.3816793893129775,0.430956298828125,0.28969840087890625,10.141838232421874,30.69470588235294
2025-10-15T20:02:06.296173,-30.33587786259542,-12.755725190839694,10.15267175572519,2.1404162841796874,-1.3934253662109375,9.334992272949219,30.741764705882353
2025-10-15T20:02:06.316668,-23.68702290076336,-1.9770992366412214,7.0458015267175576,-0.7709329345703124,-1.0223241088867188,9.938331091308592,30.741764705882353
2025-10-15T20:02:06.339546,-20.66412213740458,-0.4351145038167939,6.900763358778626,0.023942016601562498,-1.0797849487304687,8.966285217285156,30.835882352941177
2025-10-15T20:02:06.357319,-16.9618320610687,-2.2213740458015265,5.183206106870229,1.2665326782226562,-0.5746083984375,9.291896643066405,30.741764705882353
2025-10-15T20:02:06.377339,-10.0,1.5648854961832062,5.687022900763359,-0.15322890625,-0.6009446166992187,9.011775048828124,30.741764705882353
2025-10-15T20:02:06.400426,-2.9389312977099236,2.3893129770992365,3.50381679389313,0.3016694091796875,-0.229843359375,8.932766394042968,30.741764705882353
2025-10-15T20:02:06.418627,0.2595419847328244,2.900763358778626,0.366412213740458,0.24899697265624998,-0.2537853759765625,9.409212524414063,30.64764705882353
2025-10-15T20:02:06.438205,5.358778625954199,5.267175572519084,-1.7633587786259541,0.7613561279296874,0.9217676391601562,9.069235888671875,30.741764705882353
2025-10-15T20:02:06.461116,2.7557251908396947,4.267175572519084,1.786259541984733,0.9026140258789062,1.0271125122070313,9.701305126953125,30.64764705882353
2025-10-15T20:02:06.480170,1.1297709923664123,5.786259541984733,-0.5648854961832062,0.9624690673828125,0.19393033447265623,8.832209924316405,30.788823529411765
2025-10-15T20:02:06.498914,-3.0381679389312977,7.885496183206107,-1.8931297709923665,1.7501614135742187,-1.16837041015625,9.854534033203125,30.69470588235294
2025-10-15T20:02:06.521599,1.2366412213740459,11.312977099236642,-0.015267175572519083,0.6344634399414062,-0.3902548706054687,9.469067565917967,30.69470588235294
2025-10-15T20:02:06.541533,-3.5572519083969465,8.969465648854962,-0.2748091603053435,1.1276689819335937,-0.047884033203124995,8.872911352539061,30.69470588235294
2025-10-15T20:02:06.561662,-3.099236641221374,9.80916030534351,-1.2900763358778626,0.34237083740234375,-0.0718260498046875,8.992621435546875,30.741764705882353
2025-10-15T20:02:06.584518,-1.618320610687023,12.916030534351146,-1.8625954198473282,-0.10295067138671875,-0.39743747558593745,8.28633194580078,30.835882352941177
2025-10-15T20:02:06.603154,-0.3511450381679389,9.885496183206106,-2.5877862595419847,0.4572925170898437,0.28012159423828126,8.729259252929687,30.69470588235294
2025-10-15T20:02:06.622286,0.22137404580152673,8.412213740458014,-3.183206106870229,0.4381389038085937,-0.36152445068359373,9.191340173339842,30.69470588235294
2025-10-15T20:02:06.644696,2.9770992366412212,10.366412213740459,-4.3816793893129775,0.3064578125,-0.6009446166992187,8.262389929199218,30.741764705882353
2025-10-15T20:02:06.663746,6.236641221374046,3.4427480916030535,-4.893129770992366,-0.3232172241210937,-0.229843359375,8.221688500976562,30.788823529411765
2025-10-15T20:02:06.682595,9.633587786259541,-0.183206106870229,-5.099236641221374,0.0909796630859375,-0.3064578125,8.71489404296875,30.741764705882353
2025-10-15T20:02:06.705103,10.854961832061068,-1.4809160305343512,-5.519083969465649,0.6200982299804687,-0.5817910034179687,8.82263311767578,30.60058823529412
2025-10-15T20:02:06.725077,10.992366412213741,0.2824427480916031,-5.572519083969466,0.5961562133789062,0.33039982910156246,9.129090930175781,30.788823529411765
2025-10-15T20:02:06.742910,11.633587786259541,-1.0916030534351144,-5.106870229007634,0.36152445068359373,0.28969840087890625,9.260772021484375,30.741764705882353
2025-10-15T20:02:06.764794,8.755725190839694,-4.351145038167939,-4.633587786259542,0.6392518432617187,0.09337386474609374,9.05965908203125,30.69470588235294
2025-10-15T20:02:06.784649,6.977099236641221,-4.511450381679389,-3.5877862595419847,0.6919242797851562,0.5793968017578125,10.089165795898436,30.64764705882353
2025-10-15T20:02:06.803482,2.183206106870229,-4.015267175572519,-1.7099236641221374,0.8810662109374999,0.21308394775390624,9.56962403564453,30.69470588235294
2025-10-15T20:02:06.825764,2.4580152671755724,-3.2213740458015265,-1.1068702290076335,0.3112462158203125,0.11013327636718749,9.89523546142578,30.64764705882353
2025-10-15T20:02:06.844762,-1.916030534351145,-6.458015267175573,1.083969465648855,0.5003881469726562,0.507570751953125,9.610325463867188,30.741764705882353
2025-10-15T20:02:06.864185,-2.946564885496183,-6.877862595419847,1.8931297709923665,0.36391865234375,0.6631938598632812,10.20887587890625,30.741764705882353
2025-10-15T20:02:06.886617,-8.603053435114504,-8.091603053435115,3.5572519083969465,0.15562310791015624,1.005564697265625,7.8721350585937495,30.741764705882353
2025-10-15T20:02:06.905189,-13.091603053435115,-13.282442748091603,4.488549618320611,-0.277727392578125,1.1109095703125,9.5001921875,30.69470588235294
2025-10-15T20:02:06.924257,-15.351145038167939,-14.19083969465649,4.114503816793893,1.7812860351562498,-0.4261678955078125,10.587159741210938,30.741764705882353
2025-10-15T20:02:06.946948,-17.900763358778626,-11.419847328244275,6.145038167938932,1.8746598999023436,-0.38786066894531246,10.0748005859375,30.741764705882353
2025-10-15T20:02:06.966398,-14.870229007633588,-3.312977099236641,5.312977099236641,0.7924807495117187,-0.09337386474609374,9.464279162597656,30.741764705882353
2025-10-15T20:02:06.984733,-14.488549618320612,-5.717557251908397,7.129770992366412,-0.277727392578125,-0.9600748657226562,9.0788126953125,30.69470588235294
2025-10-15T20:02:07.007141,-11.381679389312977,-8.335877862595419,4.343511450381679,1.6160861206054686,-0.03591302490234375,9.720458740234374,30.788823529411765
2025-10-15T20:02:07.027445,-7.0534351145038165,-0.16793893129770993,4.1603053435114505,1.3766659545898436,-1.024718310546875,9.993397729492187,30.741764705882353
2025-10-15T20:02:07.044878,-2.8625954198473282,5.4961832061068705,2.6030534351145036,0.2154781494140625,0.8906430175781249,10.077194787597655,30.788823529411765
2025-10-15T20:02:07.067120,-5.419847328244275,2.595419847328244,4.511450381679389,0.5602431884765625,-0.4477157104492187,9.373299499511718,30.741764705882353
2025-10-15T20:02:07.088265,-4.312977099236641,3.366412213740458,3.5267175572519083,-0.40462008056640625,-0.8355763793945312,10.395623608398436,30.741764705882353
2025-10-15T20:02:07.105109,-3.83206106870229,7.66412213740458,3.2977099236641223,0.5985504150390625,-0.22505495605468748,9.919177478027343,30.69470588235294
2025-10-15T20:02:07.127097,-3.6030534351145036,11.274809160305344,3.6259541984732824,0.7613561279296874,-0.430956298828125,9.3086560546875,30.788823529411765
2025-10-15T20:02:07.148651,-0.13740458015267176,9.305343511450381,1.6259541984732824,1.5753846923828123,0.8259995727539062,9.947907897949218,30.741764705882353
2025-10-15T20:02:07.165485,2.618320610687023,12.259541984732824,-0.732824427480916,0.3064578125,-1.675941162109375,9.512163195800781,30.60058823529412
2025-10-15T20:02:07.187404,5.717557251908397,11.320610687022901,-0.9083969465648855,0.5506663818359374,0.6560112548828124,8.506598498535157,30.741764705882353
2025-10-15T20:02:07.209381,4.435114503816794,7.625954198473282,-1.6488549618320612,-0.06464344482421874,-0.45010991210937495,8.805873706054687,30.69470588235294
2025-10-15T20:02:07.226220,5.549618320610687,10.16030534351145,-2.122137404580153,0.5339069702148437,0.7230489013671875,9.514557397460937,30.741764705882353
2025-10-15T20:02:07.248041,4.419847328244275,10.427480916030534,-1.916030534351145,0.5961562133789062,-0.4381389038085937,8.449137658691406,30.69470588235294
2025-10-15T20:02:07.270451,4.603053435114504,7.1603053435114505,-2.3282442748091605,-0.9265560424804687,0.565031591796875,10.486603271484375,30.69470588235294
2025-10-15T20:02:07.287292,2.3969465648854964,9.992366412213741,-2.9770992366412212,0.28012159423828126,-0.5913678100585937,7.560888842773437,30.64764705882353
2025-10-15T20:02:07.309389,4.923664122137405,6.183206106870229,-5.809160305343512,0.5506663818359374,-1.7262193969726563,7.184999182128906,30.69470588235294
2025-10-15T20:02:07.332315,4.816793893129771,-2.519083969465649,-2.6946564885496183,-1.446097802734375,0.20350714111328125,8.080430603027343,30.741764705882353
2025-10-15T20:02:07.349220,6.557251908396947,-2.7099236641221376,-5.740458015267175,-1.005564697265625,-0.6967126831054687,9.404424121093749,30.788823529411765
2025-10-15T20:02:07.371206,2.2290076335877864,-2.900763358778626,-3.854961832061069,0.8044517578125,0.2442085693359375,8.722076647949219,30.69470588235294
2025-10-15T20:02:07.394632,3.2595419847328246,-3.435114503816794,-2.7786259541984735,0.6871358764648438,-0.29448680419921874,8.518569506835936,30.64764705882353
2025-10-15T20:02:07.411515,1.5954198473282444,-9.748091603053435,-2.3740458015267176,0.5817910034179687,0.258573779296875,9.093177905273437,30.69470588235294
2025-10-15T20:02:07.432526,2.236641221374046,-8.221374045801527,-2.7022900763358777,0.5339069702148437,0.23702596435546874,9.543287817382812,30.788823529411765
2025-10-15T20:02:07.455348,2.7404580152671754,-5.33587786259542,-2.5572519083969465,0.7302315063476562,0.14125789794921875,9.533711010742186,30.741764705882353
2025-10-15T20:02:07.472243,2.732824427480916,-6.7251908396946565,-2.6946564885496183,0.7158662963867187,0.04548983154296875,9.572018237304688,30.741764705882353
2025-10-15T20:02:07.493040,2.877862595419847,-9.396946564885496,-2.7786259541984735,0.5386953735351562,-0.19153613281249998,9.76116016845703,30.69470588235294
2025-10-15T20:02:07.516092,2.030534351145038,-9.49618320610687,-1.9083969465648856,0.9050082275390624,0.24899697265624998,10.59194814453125,30.741764705882353
2025-10-15T20:02:07.533842,-2.687022900763359,-6.824427480916031,-0.04580152671755725,-0.36631285400390623,-0.05985504150390625,9.97184991455078,30.741764705882353
2025-10-15T20:02:07.553855,-6.908396946564886,-12.687022900763358,-1.9236641221374047,0.63206923828125,0.7948749511718749,8.765172277832031,30.741764705882353
2025-10-15T20:02:07.577576,-6.66412213740458,-15.877862595419847,0.5114503816793893,-0.8188169677734375,-0.3064578125,9.94072529296875,30.788823529411765
2025-10-15T20:02:07.595970,-11.16793893129771,-11.816793893129772,2.595419847328244,1.7932570434570312,-1.1516109985351561,9.868899243164062,30.69470588235294
2025-10-15T20:02:07.615890,-8.206106870229007,-8.229007633587786,0.5725190839694656,1.5586252807617187,-1.350329736328125,10.084377392578125,30.741764705882353
2025-10-15T20:02:07.638639,-6.106870229007634,-8.290076335877863,2.5343511450381677,2.39420166015625,-1.2018892333984375,9.900023864746093,30.69470588235294
2025-10-15T20:02:07.656900,-5.488549618320611,-9.068702290076336,1.0381679389312977,0.7254431030273437,0.38307226562499996,9.188945971679686,30.788823529411765
2025-10-15T20:02:07.676882,-2.030534351145038,-9.748091603053435,0.9312977099236641,1.3646949462890625,0.1149216796875,10.500968481445312,30.741764705882353
2025-10-15T20:02:07.699433,3.099236641221374,-2.9083969465648853,1.9236641221374047,0.023942016601562498,-0.21787235107421873,10.687716210937499,30.69470588235294
2025-10-15T20:02:07.717124,3.2290076335877864,3.66412213740458,-0.5038167938931297,0.47644613037109373,-0.4955997436523437,9.18655177001953,30.788823529411765
2025-10-15T20:02:07.737479,4.1603053435114505,-1.3129770992366412,-0.916030534351145,1.3742717529296875,-0.11731588134765625,9.720458740234374,30.741764705882353
2025-10-15T20:02:07.760143,2.572519083969466,3.5114503816793894,-1.1755725190839694,2.0638018310546875,0.7110778930664062,10.635043774414061,30.741764705882353
2025-10-15T20:02:07.777411,4.763358778625954,8.740458015267176,-0.24427480916030533,0.7422025146484375,1.369483349609375,8.67658681640625,30.741764705882353
2025-10-15T20:02:07.797951,0.19083969465648856,9.465648854961833,-0.35877862595419846,2.9281086303710935,0.6344634399414062,7.659051110839843,30.788823529411765
2025-10-15T20:02:07.820722,-4.152671755725191,9.16793893129771,-1.7709923664122138,1.3263877197265623,-0.3016694091796875,10.091559997558592,30.741764705882353
2025-10-15T20:02:07.837554,-5.977099236641221,16.206106870229007,-0.3435114503816794,0.9337386474609375,0.19393033447265623,9.457096557617186,30.835882352941177
2025-10-15T20:02:07.858543,-9.618320610687023,15.969465648854962,-0.4961832061068702,0.9433154541015625,0.37828386230468747,9.255983618164063,30.69470588235294
2025-10-15T20:02:07.881296,-14.679389312977099,15.183206106870228,0.13740458015267176,0.8954314208984374,0.59376201171875,9.588777648925781,30.64764705882353
2025-10-15T20:02:07.898537,-15.992366412213741,20.213740458015266,0.7557251908396947,0.737414111328125,0.5315127685546874,8.834604125976561,30.64764705882353
2025-10-15T20:02:07.918539,-21.50381679389313,20.80916030534351,1.9770992366412214,0.4740519287109375,0.488417138671875,8.513781103515624,30.741764705882353
2025-10-15T20:02:07.940906,-24.3206106870229,20.786259541984734,3.648854961832061,-0.16041151123046873,-0.6296750366210937,7.735665563964844,30.835882352941177
2025-10-15T20:02:07.959005,-19.458015267175572,19.427480916030536,0.5801526717557252,0.9433154541015625,0.5099649536132812,8.461108666992187,30.69470588235294
2025-10-15T20:02:07.978624,-16.18320610687023,16.03053435114504,2.1297709923664123,-0.9217676391601562,0.047884033203124995,9.548076220703125,30.64764705882353
2025-10-15T20:02:08.001001,-11.32824427480916,11.511450381679388,0.8320610687022901,-0.22026655273437498,-0.4285620971679687,7.163451367187499,30.741764705882353
2025-10-15T20:02:08.019985,-6.458015267175573,5.534351145038168,0.5725190839694656,0.055066638183593745,-0.17238251953125,8.458714465332031,30.835882352941177
2025-10-15T20:02:08.038442,-3.0229007633587788,5.4961832061068705,-0.25190839694656486,0.7302315063476562,0.3854664672851562,8.092401611328125,30.64764705882353
2025-10-15T20:02:08.060840,-1.4885496183206106,2.2442748091603053,-0.6793893129770993,0.11013327636718749,-1.0630255371093749,7.8170684204101555,30.64764705882353
2025-10-15T20:02:08.081081,3.8091603053435112,-2.7099236641221376,-1.6717557251908397,-0.16998831787109375,-0.0526724365234375,8.379705810546875,30.741764705882353
2025-10-15T20:02:08.098256,6.190839694656488,-4.1679389312977095,-2.3587786259541983,0.7015010864257812,-0.7158662963867187,9.05965908203125,30.64764705882353
2025-10-15T20:02:08.120371,7.755725190839694,-4.213740458015267,-3.045801526717557,0.3711012573242187,-0.27293898925781246,9.018957653808593,30.69470588235294
2025-10-15T20:02:08.141469,9.961832061068701,-4.541984732824427,-3.7557251908396947,-0.181959326171875,-0.4285620971679687,8.846575134277343,30.69470588235294
2025-10-15T20:02:08.158300,12.145038167938932,-8.297709923664122,-3.984732824427481,-0.0143652099609375,0.18914193115234373,7.7979148071289055,30.69470588235294
2025-10-15T20:02:08.180472,1.1374045801526718,-11.893129770992367,-3.3969465648854964,0.28730419921875,0.3112462158203125,8.003816149902343,30.69470588235294
2025-10-15T20:02:08.202419,11.801526717557252,-20.740458015267176,-4.320610687022901,2.0542250244140625,-1.1133037719726562,10.69968721923828,30.741764705882353
2025-10-15T20:02:08.219251,4.404580152671755,-14.458015267175572,-3.0763358778625953,0.7278373046875,0.38307226562499996,10.065223779296874,30.741764705882353
2025-10-15T20:02:08.241352,8.450381679389313,-11.099236641221374,-5.099236641221374,0.5099649536132812,-0.05027823486328125,9.909600671386718,30.741764705882353
2025-10-15T20:02:08.264176,10.427480916030534,-16.30534351145038,-3.2213740458015265,0.6177040283203125,0.469263525390625,11.271901416015623,30.788823529411765
2025-10-15T20:02:08.281053,7.236641221374046,-17.732824427480917,-3.6412213740458017,0.6105214233398437,0.35194764404296874,10.225635290527343,30.835882352941177
2025-10-15T20:02:08.302906,5.152671755725191,-15.618320610687023,-4.022900763358779,1.2928688964843749,-0.6105214233398437,11.125855114746093,30.882941176470588
2025-10-15T20:02:08.325877,2.1755725190839694,-11.610687022900763,-2.717557251908397,1.0223241088867188,0.6200982299804687,10.338162768554687,30.64764705882353
2025-10-15T20:02:08.342729,0.549618320610687,-5.931297709923665,-3.198473282442748,1.0893617553710937,-0.33039982910156246,10.237606298828124,30.788823529411765
2025-10-15T20:02:08.363271,-3.5801526717557253,-13.67175572519084,-2.801526717557252,0.7805097412109374,0.181959326171875,10.067617980957031,30.788823529411765
2025-10-15T20:02:08.388146,-2.015267175572519,-5.122137404580153,-3.4122137404580153,0.8116343627929687,0.028730419921875,10.754753857421875,30.69470588235294
2025-10-15T20:02:08.405408,-3.6946564885496183,1.3511450381679388,-2.648854961832061,1.2856862915039062,-0.18914193115234373,10.160991845703125,30.788823529411765
2025-10-15T20:02:08.425413,-3.572519083969466,-0.11450381679389313,-3.1068702290076335,0.3902548706054687,0.03591302490234375,9.37808790283203,30.741764705882353
2025-10-15T20:02:08.447738,-5.320610687022901,0.6946564885496184,-2.549618320610687,0.8212111694335937,-0.05746083984375,10.32379755859375,30.788823529411765
2025-10-15T20:02:08.465832,-5.488549618320611,6.740458015267175,-2.7557251908396947,1.4628572143554686,0.02154781494140625,9.888052856445311,30.835882352941177
2025-10-15T20:02:08.484999,-6.259541984732825,8.564885496183207,-2.1755725190839694,0.8092401611328125,0.20829554443359374,8.772354882812499,30.69470588235294
2025-10-15T20:02:08.507439,-6.572519083969466,6.564885496183206,-2.1755725190839694,1.0031704956054688,0.40462008056640625,9.433154541015625,30.64764705882353
2025-10-15T20:02:08.526378,-8.595419847328245,10.030534351145038,-1.8931297709923665,0.0909796630859375,-0.32561142578124996,9.210493786621093,30.788823529411765
2025-10-15T20:02:08.544747,-5.770992366412214,12.32824427480916,-1.5572519083969465,1.0582371337890624,0.3687070556640625,8.674192614746094,30.69470588235294
2025-10-15T20:02:08.566566,-8.267175572519085,12.717557251908397,-0.2824427480916031,1.8435352783203125,1.0749965454101562,8.520963708496094,30.835882352941177
2025-10-15T20:02:08.586362,-6.412213740458015,11.969465648854962,-1.4045801526717556,2.961627453613281,-0.20350714111328125,9.823409411621093,30.741764705882353
2025-10-15T20:02:08.603874,-6.633587786259542,11.740458015267176,-1.7633587786259541,-0.32082302246093747,-1.4413093994140624,7.4220251464843745,30.788823529411765
2025-10-15T20:02:08.625550,0.20610687022900764,8.206106870229007,-1.9618320610687023,0.9600748657226562,0.5219359619140624,9.387664709472656,30.69470588235294
2025-10-15T20:02:08.645780,-3.2061068702290076,7.297709923664122,-1.7099236641221374,1.8842367065429686,-1.2378022583007813,9.006986645507812,30.69470588235294
2025-10-15T20:02:08.665246,0.030534351145038167,9.01526717557252,-2.1297709923664123,0.4477157104492187,-0.3280056274414062,8.645462194824217,30.741764705882353
2025-10-15T20:02:08.687149,-3.366412213740458,6.786259541984733,-0.6183206106870229,-0.12449848632812499,-0.26336218261718747,8.034940771484374,30.69470588235294
2025-10-15T20:02:08.707788,-0.33587786259541985,4.068702290076335,-1.3969465648854962,0.5889736083984375,-0.0047884033203125,8.971073620605468,30.69470588235294
2025-10-15T20:02:08.725282,-4.66412213740458,4.259541984732825,0.22900763358778625,0.4429273071289062,-0.22744915771484372,8.51617530517578,30.741764705882353
2025-10-15T20:02:08.746976,-2.0076335877862594,2.801526717557252,-0.022900763358778626,0.74699091796875,-0.26336218261718747,8.82263311767578,30.741764705882353
2025-10-15T20:02:08.767855,-5.687022900763359,0.5038167938931297,0.6946564885496184,0.040701428222656245,-0.36391865234375,8.59997236328125,30.741764705882353
2025-10-15T20:02:08.784695,-2.114503816793893,-1.7633587786259541,0.549618320610687,0.22744915771484372,0.08140285644531249,9.081206896972656,30.788823529411765
2025-10-15T20:02:08.806660,-0.7938931297709924,-4.083969465648855,0.8778625954198473,0.1197100830078125,-0.44053310546874996,9.34696328125,30.788823529411765
2025-10-15T20:02:08.828155,-0.7557251908396947,-5.984732824427481,0.25190839694656486,0.201112939453125,-0.086191259765625,9.399635717773437,30.741764705882353
2025-10-15T20:02:08.844971,1.2213740458015268,-6.99236641221374,-0.3053435114503817,0.45489831542968745,0.5506663818359374,9.509768994140625,30.788823529411765
2025-10-15T20:02:08.866898,-0.1297709923664122,-7.702290076335878,-1.3206106870229009,0.9792284790039062,-0.3758896606445312,8.566453540039062,30.69470588235294
2025-10-15T20:02:08.888388,2.7251908396946565,-10.17557251908397,-2.2442748091603053,1.5107412475585937,0.1292868896484375,11.635820068359374,30.788823529411765
2025-10-15T20:02:08.905216,0.4961832061068702,-14.801526717557252,-2.8473282442748094,1.5658078857421873,0.32561142578124996,10.850521923828124,30.835882352941177
2025-10-15T20:02:08.927174,3.8091603053435112,-9.053435114503817,-1.9923664122137406,1.2761094848632812,0.2825157958984375,10.9941740234375,30.788823529411765
2025-10-15T20:02:08.949522,2.854961832061069,-5.717557251908397,-4.679389312977099,0.6248866333007812,0.1149216796875,10.189722265624999,30.64764705882353
2025-10-15T20:02:08.966353,4.267175572519084,-5.709923664122138,-5.938931297709924,0.63206923828125,0.2753331909179687,9.56962403564453,30.741764705882353
2025-10-15T20:02:08.988604,3.4580152671755724,-10.068702290076336,-6.648854961832061,0.8930372192382812,0.3399766357421875,10.579977136230468,30.69470588235294
2025-10-15T20:02:09.011762,3.1526717557251906,-5.870229007633588,-8.282442748091603,1.0558429321289062,0.08858546142578125,10.843339318847656,30.69470588235294
2025-10-15T20:02:09.028584,3.2977099236641223,1.6030534351145038,-8.50381679389313,0.8882488159179687,-0.09576806640624999,10.275913525390624,30.741764705882353
2025-10-15T20:02:09.049936,3.0610687022900764,0.6870229007633588,-9.320610687022901,0.7015010864257812,0.11013327636718749,9.358934289550781,30.788823529411765
2025-10-15T20:02:09.072753,5.702290076335878,-2.9923664122137406,-9.610687022900763,0.7278373046875,-0.296881005859375,10.137049829101562,30.64764705882353
2025-10-15T20:02:09.090005,3.6946564885496183,2.564885496183206,-9.82442748091603,1.0845733520507812,-0.033518823242187495,10.563217724609375,30.741764705882353
2025-10-15T20:02:09.110169,3.1603053435114505,7.694656488549619,-9.885496183206106,1.0582371337890624,-0.08379705810546874,9.229647399902344,30.741764705882353
2025-10-15T20:02:09.132742,3.648854961832061,4.465648854961832,-10.099236641221374,0.5195417602539062,0.44532150878906246,8.664615808105468,30.69470588235294
2025-10-15T20:02:09.150870,1.9312977099236641,5.1603053435114505,-10.106870229007633,0.45010991210937495,0.06464344482421874,9.897629663085937,30.835882352941177
2025-10-15T20:02:09.170310,2.16793893129771,9.473282442748092,-9.030534351145038,0.5291185668945312,0.316034619140625,9.018957653808593,30.741764705882353
2025-10-15T20:02:09.192998,1.6106870229007633,8.816793893129772,-9.389312977099237,0.9457096557617187,0.25139117431640623,8.226476904296874,30.788823529411765
2025-10-15T20:02:09.211958,-0.3282442748091603,6.076335877862595,-8.221374045801527,0.7517793212890624,0.4429273071289062,9.014169250488282,30.64764705882353
2025-10-15T20:02:09.230419,-1.83206106870229,10.053435114503817,-7.3893129770992365,0.6871358764648438,0.12210428466796874,8.544905725097657,30.835882352941177
2025-10-15T20:02:09.252870,-0.0916030534351145,9.290076335877863,-6.854961832061068,0.5243301635742187,0.22505495605468748,8.046911779785155,30.741764705882353
2025-10-15T20:02:09.273109,-4.190839694656488,6.236641221374046,-7.816793893129771,0.5698199951171875,0.4572925170898437,8.963891015625,30.741764705882353
2025-10-15T20:02:09.290380,-7.145038167938932,7.931297709923665,-4.854961832061068,0.6009446166992187,0.08140285644531249,8.623914379882812,30.788823529411765
2025-10-15T20:02:09.312563,-8.770992366412214,6.885496183206107,-3.5877862595419847,0.9504980590820312,1.5179238525390624,8.839392529296875,30.69470588235294
2025-10-15T20:02:09.333658,-13.221374045801527,2.8244274809160306,-0.08396946564885496,-0.086191259765625,0.6536170532226562,9.222464794921875,30.741764705882353
2025-10-15T20:02:09.350574,-16.061068702290076,4.022900763358779,-0.48091603053435117,0.9169792358398436,-0.38786066894531246,8.971073620605468,30.69470588235294
2025-10-15T20:02:09.372791,-21.106870229007633,0.8931297709923665,0.9236641221374046,0.4429273071289062,1.0797849487304687,8.836998327636719,30.741764705882353
2025-10-15T20:02:09.394742,-23.31297709923664,-0.6946564885496184,0.8854961832061069,2.389413256835937,-0.5123591552734374,8.772354882812499,30.835882352941177
2025-10-15T20:02:09.411640,-21.17557251908397,-2.7480916030534353,2.2900763358778624,0.3136404174804687,-0.6560112548828124,9.457096557617186,30.69470588235294
2025-10-15T20:02:09.433644,-17.198473282442748,0.46564885496183206,0.3282442748091603,0.0,-0.5363011718749999,8.8489693359375,30.788823529411765
2025-10-15T20:02:09.456460,-12.01526717557252,-1.3435114503816794,0.44274809160305345,-0.23702596435546874,-0.8882488159179687,9.162609753417968,30.64764705882353
2025-10-15T20:02:09.473420,-5.755725190839694,-7.312977099236641,-1.2900763358778626,0.18914193115234373,-0.565031591796875,9.260772021484375,30.741764705882353
2025-10-15T20:02:09.495194,1.450381679389313,-5.694656488549619,-2.068702290076336,0.49320554199218747,-0.47165772705078124,10.673351000976561,30.69470588235294
2025-10-15T20:02:09.518176,3.1603053435114505,0.5419847328244275,-3.595419847328244,-0.6943184814453125,0.3280056274414062,9.222464794921875,30.835882352941177
2025-10-15T20:02:09.535023,6.114503816793893,-2.5877862595419847,-4.7251908396946565,-1.1659762084960936,-0.411802685546875,8.963891015625,30.835882352941177
2025-10-15T20:02:09.555961,0.06870229007633588,-7.312977099236641,-6.061068702290076,1.39821376953125,-0.3950432739257812,10.620678564453124,30.835882352941177
2025-10-15T20:02:09.578661,5.694656488549619,-10.793893129770993,-7.7251908396946565,0.6105214233398437,0.12210428466796874,11.621454858398437,30.741764705882353
2025-10-15T20:02:09.596496,7.809160305343512,-0.8778625954198473,-8.16793893129771,1.8602946899414061,-1.254561669921875,10.869675537109375,30.788823529411765
2025-10-15T20:02:09.616348,7.427480916030534,-1.4809160305343512,-10.511450381679388,0.9193734375,-0.373495458984375,9.030928662109375,30.741764705882353
2025-10-15T20:02:09.639119,8.969465648854962,-6.366412213740458,-11.442748091603054,0.7972691528320313,-0.354341845703125,9.138667736816405,30.788823529411765
2025-10-15T20:02:09.658098,8.366412213740459,-11.557251908396946,-11.15267175572519,1.5083470458984374,0.02154781494140625,10.86009873046875,30.69470588235294
2025-10-15T20:02:09.676740,6.480916030534351,-3.0610687022900764,-11.091603053435115,1.3718775512695311,0.00239420166015625,10.752359655761719,30.69470588235294
2025-10-15T20:02:09.698922,-0.32061068702290074,-1.3129770992366412,-8.931297709923664,0.10773907470703124,0.7589619262695312,9.495403784179686,30.741764705882353
2025-10-15T20:02:09.717902,0.32061068702290074,-5.4961832061068705,-8.664122137404581,0.24899697265624998,-0.08140285644531249,8.494627490234375,30.788823529411765
2025-10-15T20:02:09.737072,-0.2900763358778626,-8.916030534351146,-7.984732824427481,0.9624690673828125,-0.6488286499023437,9.1554271484375,30.741764705882353
2025-10-15T20:02:09.759584,1.8015267175572518,-0.04580152671755725,-8.908396946564885,1.0917559570312498,-0.7302315063476562,9.402029919433593,30.788823529411765
2025-10-15T20:02:09.778571,4.114503816793893,1.5190839694656488,-8.389312977099237,0.9026140258789062,-0.7015010864257812,7.963114721679687,30.69470588235294
2025-10-15T20:02:09.797693,6.0458015267175576,-5.0,-8.954198473282442,1.2018892333984375,-0.04548983154296875,8.810662109374999,30.741764705882353
2025-10-15T20:02:09.820177,7.519083969465649,-1.7328244274809161,-8.755725190839694,0.948103857421875,-0.45968671875,9.579200842285156,30.64764705882353
2025-10-15T20:02:09.839166,8.763358778625955,6.076335877862595,-8.442748091603054,0.6416460449218749,0.2561795776367187,8.719682446289061,30.69470588235294
2025-10-15T20:02:09.858323,5.755725190839694,0.9694656488549618,-8.091603053435115,0.6512228515624999,0.3327940307617187,8.690952026367187,30.741764705882353
2025-10-15T20:02:09.880593,4.748091603053435,2.0229007633587788,-7.541984732824427,0.8547299926757812,0.04548983154296875,9.497797985839844,30.788823529411765
2025-10-15T20:02:09.899174,-0.007633587786259542,8.381679389312977,-6.8320610687022905,0.737414111328125,0.17238251953125,8.614337573242187,30.741764705882353
2025-10-15T20:02:09.918792,-1.8396946564885497,4.908396946564886,-6.526717557251908,1.1611878051757811,0.6943184814453125,8.82263311767578,30.788823529411765
2025-10-15T20:02:09.941276,-6.412213740458015,5.442748091603053,-4.038167938931298,0.8044517578125,1.6639701538085936,9.124302526855468,30.741764705882353
2025-10-15T20:02:09.959869,-8.091603053435115,11.648854961832061,-6.2748091603053435,0.948103857421875,1.0438719238281249,9.129090930175781,30.741764705882353
2025-10-15T20:02:09.978772,-13.030534351145038,6.32824427480916,-5.106870229007634,0.622492431640625,1.9584569580078124,9.6917283203125,30.64764705882353
2025-10-15T20:02:10.001033,-18.114503816793892,6.854961832061068,-4.770992366412214,0.7685387329101562,0.5865794067382812,8.367734802246094,30.788823529411765
2025-10-15T20:02:10.020615,-22.69465648854962,5.312977099236641,-3.7404580152671754,1.946485949707031,1.4772224243164063,8.245630517578125,30.835882352941177
2025-10-15T20:02:10.041112,-23.16793893129771,4.938931297709924,-4.458015267175573,0.011971008300781249,-0.814028564453125,9.358934289550781,30.741764705882353
2025-10-15T20:02:10.063791,-28.48854961832061,0.8854961832061069,0.6717557251908397,0.8595183959960937,2.5809493896484375,10.065223779296874,30.741764705882353
2025-10-15T20:02:10.081898,-26.114503816793892,5.458015267175573,-1.7786259541984732,-0.4908113403320312,0.373495458984375,8.95670841064453,30.69470588235294
2025-10-15T20:02:10.101237,-24.427480916030536,7.465648854961832,-1.1374045801526718,1.0103531005859374,-0.17477672119140625,9.133879333496093,30.64764705882353
2025-10-15T20:02:10.123799,-26.16030534351145,6.305343511450381,-0.9923664122137404,0.076614453125,-0.5578489868164063,8.379705810546875,30.69470588235294
2025-10-15T20:02:10.142733,-19.396946564885496,3.213740458015267,-1.900763358778626,-1.39821376953125,-1.455674609375,9.437942944335937,30.788823529411765
2025-10-15T20:02:10.161097,-10.213740458015268,5.076335877862595,-3.2595419847328246,1.9105729248046874,0.39983167724609375,10.299855541992187,30.741764705882353
2025-10-15T20:02:10.183292,-5.732824427480916,2.351145038167939,-7.083969465648855,-0.5410895751953124,-0.9145850341796874,10.752359655761719,30.69470588235294
2025-10-15T20:02:10.203489,2.030534351145038,-3.4580152671755724,-5.908396946564886,-0.6464344482421874,-0.6847416748046875,11.159373937988281,30.741764705882353
2025-10-15T20:02:10.220649,8.290076335877863,-2.2442748091603053,-9.450381679389313,0.7613561279296874,-0.6200982299804687,9.006986645507812,30.64764705882353
2025-10-15T20:02:10.242393,7.8320610687022905,-2.7786259541984735,-10.351145038167939,0.5458779785156249,0.277727392578125,9.459490759277344,30.64764705882353
2025-10-15T20:02:10.263021,11.229007633587786,-4.969465648854962,-11.870229007633588,-0.41898529052734373,0.35194764404296874,8.588001354980468,30.741764705882353
2025-10-15T20:02:10.279852,13.50381679389313,-6.984732824427481,-13.312977099236642,-0.6584054565429687,0.8930372192382812,9.713276135253906,30.69470588235294
2025-10-15T20:02:10.302095,12.465648854961833,-1.3587786259541985,-15.267175572519085,-0.0383072265625,-0.1580173095703125,8.968679418945312,30.69470588235294
2025-10-15T20:02:10.324084,13.320610687022901,-4.259541984732825,-14.16030534351145,0.6009446166992187,1.235408056640625,10.108319409179687,30.835882352941177
2025-10-15T20:02:10.340974,13.618320610687023,-3.7709923664122136,-15.572519083969466,0.3447650390625,0.59376201171875,9.591171850585937,30.69470588235294
2025-10-15T20:02:10.362953,9.916030534351146,-2.633587786259542,-15.412213740458014,0.7302315063476562,0.06703764648437499,9.93354268798828,30.64764705882353
2025-10-15T20:02:10.385832,11.488549618320612,-2.030534351145038,-16.114503816793892,1.0749965454101562,0.5434837768554687,10.041281762695311,30.882941176470588
2025-10-15T20:02:10.402663,10.16030534351145,-1.5267175572519085,-14.587786259541986,1.350329736328125,1.5179238525390624,9.284714038085937,30.835882352941177
2025-10-15T20:02:10.424502,7.549618320610687,-1.0381679389312977,-14.488549618320612,-0.00239420166015625,1.8219874633789062,9.409212524414063,30.69470588235294
2025-10-15T20:02:10.447523,6.152671755725191,-1.5725190839694656,-13.01526717557252,1.3646949462890625,1.2114660400390624,8.566453540039062,30.741764705882353
2025-10-15T20:02:10.464339,2.8931297709923665,5.641221374045801,-14.801526717557252,-0.5027823486328125,1.675941162109375,10.180145458984374,30.788823529411765
2025-10-15T20:02:10.485199,3.0381679389312977,2.8244274809160306,-14.0,3.380612744140625,0.08858546142578125,9.342174877929686,30.741764705882353
2025-10-15T20:02:10.507930,-0.9465648854961832,5.3893129770992365,-11.786259541984732,0.023942016601562498,1.3455413330078123,10.297461340332031,30.788823529411765
2025-10-15T20:02:10.525273,-4.374045801526718,6.259541984732825,-12.687022900763358,0.4955997436523437,0.6560112548828124,9.514557397460937,30.741764705882353
2025-10-15T20:02:10.545535,-6.595419847328245,6.656488549618321,-12.335877862595419,0.6655880615234374,1.2306196533203124,9.564835632324218,30.741764705882353
2025-10-15T20:02:10.568491,-11.114503816793894,4.061068702290076,-11.061068702290076,0.5339069702148437,0.9217676391601562,9.172186560058593,30.69470588235294
2025-10-15T20:02:10.586905,-14.16030534351145,7.404580152671755,-10.290076335877863,0.09337386474609374,0.3327940307617187,9.102754711914063,30.64764705882353
2025-10-15T20:02:10.606391,-18.114503816793892,5.633587786259542,-5.870229007633588,1.1109095703125,1.2952630981445312,9.093177905273437,30.741764705882353
2025-10-15T20:02:10.629088,-21.389312977099237,7.320610687022901,-6.282442748091603,0.7302315063476562,0.5746083984375,8.540117321777343,30.64764705882353
2025-10-15T20:02:10.648208,-24.64885496183206,3.1603053435114505,-4.534351145038168,0.6200982299804687,0.28969840087890625,8.578424548339843,30.741764705882353
2025-10-15T20:02:10.666695,-24.610687022900763,3.877862595419847,-3.854961832061069,0.9050082275390624,-0.105344873046875,8.832209924316405,30.741764705882353
2025-10-15T20:02:10.689130,-22.900763358778626,1.0687022900763359,-3.6030534351145036,1.0438719238281249,-0.5051765502929687,8.724470849609375,30.741764705882353
2025-10-15T20:02:10.709017,-15.442748091603054,-2.8625954198473282,-2.122137404580153,-0.6200982299804687,-0.7613561279296874,8.882488159179687,30.741764705882353
2025-10-15T20:02:10.726783,-9.335877862595419,-3.595419847328244,-5.923664122137405,0.6081272216796875,-0.9600748657226562,8.793902697753905,30.741764705882353
2025-10-15T20:02:10.749028,-4.763358778625954,-5.5038167938931295,-7.267175572519084,0.7829039428710937,-0.8978256225585937,8.963891015625,30.788823529411765
2025-10-15T20:02:10.769843,3.2061068702290076,-5.488549618320611,-8.404580152671755,0.7757213378906249,-0.9409212524414062,9.411606726074218,30.741764705882353
2025-10-15T20:02:10.786681,5.7251908396946565,-8.648854961832061,-9.19083969465649,0.5578489868164063,-0.3711012573242187,9.217676391601563,30.835882352941177
2025-10-15T20:02:10.808700,7.8320610687022905,-8.648854961832061,-11.114503816793894,0.6727706665039062,-0.8212111694335937,9.418789331054686,30.788823529411765
2025-10-15T20:02:10.830344,12.389312977099237,-9.282442748091603,-10.15267175572519,0.6679822631835937,-0.7805097412109374,9.785102185058593,30.69470588235294
2025-10-15T20:02:10.847207,14.664122137404581,-9.488549618320612,-14.030534351145038,0.30885201416015623,-0.3184288208007812,9.651026892089844,30.741764705882353
2025-10-15T20:02:10.869323,15.389312977099237,-9.374045801526718,-13.938931297709924,0.7709329345703124,-0.4285620971679687,10.01733974609375,30.788823529411765
2025-10-15T20:02:10.891918,17.984732824427482,-10.541984732824428,-14.885496183206106,2.1643583007812497,0.5003881469726562,10.228029492187499,30.69470588235294
2025-10-15T20:02:10.908739,14.740458015267176,-9.549618320610687,-13.786259541984732,1.7597382202148437,-0.3854664672851562,9.572018237304688,30.741764705882353
2025-10-15T20:02:10.930983,15.900763358778626,-9.404580152671755,-15.129770992366412,-0.9983820922851562,1.4724340209960938,10.766724865722656,30.741764705882353
2025-10-15T20:02:10.954133,8.572519083969466,-3.885496183206107,-9.870229007633588,-1.484405029296875,0.9002198242187499,9.179369165039063,30.741764705882353
2025-10-15T20:02:10.970993,-0.4198473282442748,-1.534351145038168,-10.770992366412214,2.0733786376953125,0.8643067993164062,12.136208215332031,30.69470588235294
2025-10-15T20:02:10.992176,-3.6412213740458017,2.0229007633587788,-11.572519083969466,1.0678139404296874,0.22505495605468748,8.738836059570312,30.788823529411765
2025-10-15T20:02:11.015260,-11.801526717557252,5.5038167938931295,-6.648854961832061,0.469263525390625,1.7645266235351562,10.82179150390625,30.741764705882353
2025-10-15T20:02:11.032545,-20.84732824427481,6.1679389312977095,-6.656488549618321,1.9752163696289062,-0.19871873779296872,9.710881933593749,30.788823529411765
2025-10-15T20:02:11.053108,-21.80916030534351,8.793893129770993,-5.427480916030534,1.6927005737304686,1.3383587280273437,10.692504614257812,30.69470588235294
2025-10-15T20:02:11.076084,-34.80916030534351,10.679389312977099,-0.2595419847328244,0.8116343627929687,0.5219359619140624,9.574412438964844,30.741764705882353
2025-10-15T20:02:11.093357,-39.57251908396947,11.702290076335878,1.0916030534351144,0.6655880615234374,1.4341267944335936,8.79150849609375,30.741764705882353
2025-10-15T20:02:11.113446,-46.6793893129771,17.885496183206108,3.66412213740458,-1.005564697265625,0.5602431884765625,8.066065393066406,30.69470588235294
2025-10-15T20:02:11.135921,-36.221374045801525,13.13740458015267,1.702290076335878,1.20667763671875,0.4908113403320312,10.314220751953124,30.788823529411765
2025-10-15T20:02:11.154025,-43.32824427480916,14.213740458015268,2.404580152671756,1.4317325927734375,-0.4285620971679687,7.149086157226562,30.835882352941177
2025-10-15T20:02:11.173302,-34.12977099236641,14.977099236641221,1.6488549618320612,1.0199299072265624,-0.9409212524414062,8.750807067871094,30.788823529411765
2025-10-15T20:02:11.195808,-34.32824427480916,12.305343511450381,2.0229007633587788,0.4836287353515625,-0.19871873779296872,5.430049365234375,30.788823529411765
2025-10-15T20:02:11.214743,-12.50381679389313,11.305343511450381,-1.8015267175572518,-0.13168109130859373,-1.927332336425781,6.6151791870117185,30.788823529411765
2025-10-15T20:02:11.233108,-8.511450381679388,1.5648854961832062,-2.49618320610687,-1.9105729248046874,-2.3582886352539063,6.9360022094726554,30.741764705882353
2025-10-15T20:02:11.255300,5.99236641221374,-7.396946564885496,-8.900763358778626,0.5913678100585937,-1.5514426757812498,9.533711010742186,30.741764705882353
2025-10-15T20:02:11.275488,17.244274809160306,-2.7938931297709924,-12.557251908396946,0.22744915771484372,-0.7781155395507812,10.129867224121092,30.64764705882353
2025-10-15T20:02:11.292748,28.297709923664122,-0.6183206106870229,-18.19083969465649,0.009576806640625,-0.6727706665039062,8.901641772460938,30.835882352941177
2025-10-15T20:02:11.314488,35.93893129770992,-6.198473282442748,-19.954198473282442,0.39743747558593745,-1.9919757812499999,9.37808790283203,30.788823529411765
2025-10-15T20:02:11.335945,42.2442748091603,-6.870229007633588,-22.64885496183206,1.5370774658203123,-1.1468225952148436,10.096348400878906,30.69470588235294
2025-10-15T20:02:11.352827,47.16793893129771,-5.00763358778626,-21.641221374045802,1.448492004394531,-1.6041151123046875,10.340556970214843,30.64764705882353
2025-10-15T20:02:11.374790,52.32824427480916,-4.190839694656488,-23.83969465648855,-0.8978256225585937,0.7398083129882812,9.081206896972656,30.741764705882353
2025-10-15T20:02:11.397105,44.66412213740458,-5.244274809160306,-22.206106870229007,0.30885201416015623,0.1149216796875,10.319009155273436,30.69470588235294
2025-10-15T20:02:11.413994,39.69465648854962,-5.175572519083969,-21.366412213740457,1.608903515625,0.2537853759765625,10.730811840820312,30.741764705882353
2025-10-15T20:02:11.436045,31.83206106870229,-1.6106870229007633,-18.916030534351144,1.149216796875,0.4285620971679687,9.897629663085937,30.69470588235294
2025-10-15T20:02:11.459310,24.251908396946565,-0.6793893129770993,-16.87786259541985,0.16998831787109375,1.2521674682617188,10.070012182617187,30.64764705882353
2025-10-15T20:02:11.476122,10.50381679389313,-3.8396946564885495,-13.755725190839694,0.8810662109374999,0.7541735229492187,10.012551342773437,30.741764705882353
2025-10-15T20:02:11.496788,3.572519083969466,1.5648854961832062,-12.183206106870228,0.3280056274414062,1.2018892333984375,9.459490759277344,30.741764705882353
2025-10-15T20:02:11.519344,-13.709923664122137,0.40458015267175573,-7.969465648854962,-0.05027823486328125,-0.2154781494140625,8.104372619628906,30.788823529411765
2025-10-15T20:02:11.536616,-27.18320610687023,-5.1679389312977095,-7.2748091603053435,1.0366893188476562,0.2154781494140625,9.184157568359375,30.788823529411765
2025-10-15T20:02:11.556700,-30.580152671755727,-2.0,-6.396946564885496,1.879448303222656,2.3032219970703123,12.449848632812499,30.835882352941177
2025-10-15T20:02:11.579155,-45.31297709923664,5.022900763358779,-0.7633587786259542,-0.316034619140625,0.30406361083984373,5.717353564453124,30.741764705882353
2025-10-15T20:02:11.596808,-39.404580152671755,-0.366412213740458,-2.8473282442748094,2.0829554443359375,-0.105344873046875,11.030087048339842,30.741764705882353
2025-10-15T20:02:11.616618,-55.89312977099237,4.580152671755725,-0.7709923664122137,0.5770026000976562,-0.488417138671875,6.282385156249999,30.741764705882353
2025-10-15T20:02:11.639304,-46.86259541984733,5.3816793893129775,-2.0610687022900764,0.086191259765625,0.3016694091796875,9.82580361328125,30.741764705882353
2025-10-15T20:02:11.657873,-54.52671755725191,9.442748091603054,-1.5954198473282444,0.009576806640625,-2.250549560546875,6.842628344726562,30.741764705882353
2025-10-15T20:02:11.676736,-42.33587786259542,4.916030534351145,-5.3893129770992365,0.2537853759765625,-0.8930372192382812,8.616731774902343,30.741764705882353
2025-10-15T20:02:11.699203,-36.916030534351144,2.931297709923664,-5.984732824427481,0.15562310791015624,-1.3575123413085937,7.563283044433593,30.69470588235294
2025-10-15T20:02:11.718620,-22.015267175572518,2.7557251908396947,-10.954198473282442,-0.17238251953125,-1.7022773803710936,9.464279162597656,30.788823529411765
2025-10-15T20:02:11.736603,-14.603053435114504,1.4732824427480915,-13.32824427480916,-1.0342951171875,-2.3391350219726563,7.637503295898437,30.69470588235294
2025-10-15T20:02:11.758690,-1.8854961832061068,-2.282442748091603,-16.786259541984734,-0.06943184814453125,-3.4811692138671875,9.208099584960937,30.741764705882353
2025-10-15T20:02:11.779333,10.351145038167939,-5.0458015267175576,-19.69465648854962,0.8020575561523438,-2.6791116577148437,9.60793126220703,30.882941176470588
2025-10-15T20:02:11.796169,29.236641221374047,-3.0,-23.00763358778626,0.3591302490234375,-1.0558429321289062,10.563217724609375,30.741764705882353
2025-10-15T20:02:11.818243,26.328244274809162,-3.1603053435114505,-20.801526717557252,-0.08858546142578125,-3.2154128295898436,7.8338278320312495,30.69470588235294
2025-10-15T20:02:11.840335,39.29007633587786,-7.061068702290076,-23.19083969465649,2.1404162841796874,0.411802685546875,10.218452685546874,30.741764705882353
2025-10-15T20:02:11.857172,42.23664122137404,-6.847328244274809,-21.65648854961832,-0.9145850341796874,-2.6575638427734374,9.555258825683593,30.788823529411765
2025-10-15T20:02:11.878902,41.80916030534351,-5.312977099236641,-21.83969465648855,0.7493851196289062,-1.8219874633789062,10.50815108642578,30.882941176470588
2025-10-15T20:02:11.901650,43.2442748091603,-3.984732824427481,-17.30534351145038,0.8738836059570312,-1.1947066284179686,10.182539660644531,30.835882352941177
2025-10-15T20:02:11.918526,39.69465648854962,-5.99236641221374,-14.679389312977099,2.1835119140624997,0.9528922607421875,10.24718310546875,30.69470588235294
2025-10-15T20:02:11.940010,31.34351145038168,-1.1221374045801527,-10.045801526717558,0.603338818359375,0.5291185668945312,11.350910070800781,30.788823529411765
2025-10-15T20:02:11.963200,21.885496183206108,-0.6335877862595419,-5.450381679389313,-0.229843359375,1.6472107421875,11.621454858398437,30.69470588235294
2025-10-15T20:02:11.980016,11.954198473282442,1.297709923664122,-3.816793893129771,1.2521674682617188,-0.0430956298828125,11.310208642578125,30.741764705882353
2025-10-15T20:02:12.000485,1.3053435114503817,5.236641221374046,1.0381679389312977,1.0510545288085937,0.8690952026367187,9.770736975097655,30.835882352941177
2025-10-15T20:02:12.023368,-9.98473282442748,4.183206106870229,3.8625954198473282,0.32082302246093747,0.37828386230468747,9.76116016845703,30.741764705882353
2025-10-15T20:02:12.041037,-16.68702290076336,8.17557251908397,4.1603053435114505,1.2928688964843749,0.9002198242187499,8.501810095214843,30.788823529411765
2025-10-15T20:02:12.060638,-21.702290076335878,11.587786259541986,4.740458015267175,0.6392518432617187,-2.2577321655273437,7.41244833984375,30.741764705882353
2025-10-15T20:02:12.082990,-21.557251908396946,11.549618320610687,2.2977099236641223,-1.8219874633789062,1.139639990234375,7.548917834472656,30.788823529411765
2025-10-15T20:02:12.101518,-27.259541984732824,7.068702290076335,5.076335877862595,0.9409212524414062,-0.4836287353515625,9.220070593261719,30.741764705882353
2025-10-15T20:02:12.120329,-26.47328244274809,9.992366412213741,3.114503816793893,-0.3806780639648437,0.7852981445312499,8.643067993164061,30.741764705882353
2025-10-15T20:02:12.142635,-27.87786259541985,10.32824427480916,4.442748091603053,0.7781155395507812,0.6464344482421874,8.262389929199218,30.741764705882353
2025-10-15T20:02:12.162413,-21.564885496183205,4.0,2.381679389312977,2.04943662109375,0.2059013427734375,8.499415893554687,30.741764705882353
2025-10-15T20:02:12.179996,-20.641221374045802,3.595419847328244,0.6641221374045801,1.3934253662109375,-1.2808978881835937,7.563283044433593,30.69470588235294
2025-10-15T20:02:12.202000,-12.908396946564885,1.2290076335877862,-2.2519083969465647,-0.39264907226562495,-1.5514426757812498,7.8170684204101555,30.741764705882353
2025-10-15T20:02:12.222610,-6.717557251908397,-2.0916030534351147,-4.419847328244275,-0.7493851196289062,-1.3479355346679687,8.10197841796875,30.60058823529412
2025-10-15T20:02:12.239447,4.595419847328245,-7.458015267175573,-7.022900763358779,-0.4644751220703125,-0.8188169677734375,8.56166513671875,30.835882352941177
2025-10-15T20:02:12.261238,9.419847328244275,-6.6183206106870225,-10.778625954198473,0.16759411621093748,-0.1292868896484375,8.968679418945312,30.741764705882353
2025-10-15T20:02:12.282699,6.66412213740458,-7.66412213740458,-9.465648854961833,0.24181436767578124,-1.0031704956054688,9.282319836425781,30.788823529411765
2025-10-15T20:02:12.299513,11.290076335877863,-13.122137404580153,-9.946564885496183,0.2059013427734375,1.426944189453125,8.231265307617187,30.882941176470588
2025-10-15T20:02:12.321363,8.49618320610687,-12.83206106870229,-10.82442748091603,-1.678335363769531,-0.7589619262695312,10.235212097167969,30.835882352941177
2025-10-15T20:02:12.343670,14.587786259541986,-7.458015267175573,-12.274809160305344,0.46208092041015625,-0.967257470703125,10.989385620117186,30.835882352941177
2025-10-15T20:02:12.360499,15.82442748091603,-6.534351145038168,-11.98473282442748,-0.009576806640625,-1.5610194824218748,9.540893615722656,30.835882352941177
2025-10-15T20:02:12.382536,15.84732824427481,-6.435114503816794,-13.007633587786259,1.7717092285156248,-0.7134720947265625,9.890447058105469,30.69470588235294
2025-10-15T20:02:12.405803,13.702290076335878,-2.381679389312977,-9.458015267175572,0.5793968017578125,-0.5913678100585937,10.398017810058594,30.741764705882353
2025-10-15T20:02:12.422617,13.244274809160306,-2.068702290076336,-7.923664122137405,-0.055066638183593745,0.09576806640624999,10.098742602539062,30.882941176470588
2025-10-15T20:02:12.443245,7.595419847328245,0.4198473282442748,-5.419847328244275,0.9337386474609375,-1.0534487304687499,10.943895788574219,30.741764705882353
2025-10-15T20:02:12.465800,6.137404580152672,0.06870229007633588,-4.312977099236641,1.3527239379882812,-0.8259995727539062,10.187328063964843,30.69470588235294
2025-10-15T20:02:12.483059,6.297709923664122,5.8320610687022905,-1.4961832061068703,-0.2537853759765625,-0.7637503295898437,9.83777462158203,30.741764705882353
2025-10-15T20:02:12.503121,6.2748091603053435,4.259541984732825,-0.4198473282442748,-0.18914193115234373,-0.3591302490234375,7.551312036132812,30.835882352941177
2025-10-15T20:02:12.525814,6.290076335877862,-9.793893129770993,1.0763358778625953,0.7924807495117187,-0.6679822631835937,9.816226806640625,30.788823529411765
2025-10-15T20:02:12.544324,4.67175572519084,-6.0458015267175576,2.5572519083969465,1.22583125,-0.15083470458984374,10.790666882324219,30.788823529411765
2025-10-15T20:02:12.563343,0.3969465648854962,4.877862595419847,4.320610687022901,1.20667763671875,1.0462661254882812,11.149797131347656,30.788823529411765
2025-10-15T20:02:12.585730,-5.458015267175573,11.534351145038167,5.435114503816794,0.16041151123046873,-0.09816226806640624,8.765172277832031,30.69470588235294
2025-10-15T20:02:12.605082,-7.519083969465649,1.297709923664122,6.541984732824427,0.9504980590820312,0.7206546997070312,9.337386474609374,30.741764705882353
2025-10-15T20:02:12.623048,-12.022900763358779,-1.534351145038168,5.916030534351145,0.8283937744140625,0.15322890625,9.842563024902343,30.741764705882353
2025-10-15T20:02:12.645205,-13.412213740458014,9.900763358778626,7.312977099236641,1.0797849487304687,2.003946789550781,8.877699755859375,30.835882352941177
2025-10-15T20:02:12.665898,-21.045801526717558,13.541984732824428,8.931297709923664,1.1827356201171875,0.9600748657226562,8.597578161621094,30.788823529411765
2025-10-15T20:02:12.682955,-23.778625954198475,5.183206106870229,9.763358778625955,0.3591302490234375,1.62805712890625,8.588001354980468,30.741764705882353
2025-10-15T20:02:12.704950,-29.061068702290076,3.0763358778625953,10.641221374045802,0.016759411621093748,0.19632453613281248,8.698134631347656,30.835882352941177
2025-10-15T20:02:12.726612,-29.297709923664122,13.664122137404581,10.587786259541986,0.5123591552734374,0.7134720947265625,8.013392956542969,30.64764705882353
2025-10-15T20:02:12.743529,-34.0,5.687022900763359,10.946564885496183,-0.6823474731445313,-0.0526724365234375,7.204152795410156,30.69470588235294
2025-10-15T20:02:12.765448,-32.969465648854964,-0.916030534351145,10.633587786259541,-0.0383072265625,-0.047884033203124995,8.927977990722656,30.788823529411765
2025-10-15T20:02:12.787969,-28.916030534351144,1.6564885496183206,7.938931297709924,-0.15083470458984374,0.38307226562499996,8.82981572265625,30.741764705882353
2025-10-15T20:02:12.804879,-23.51145038167939,1.3740458015267176,8.450381679389313,0.40462008056640625,-0.5746083984375,8.662221606445312,30.788823529411765
2025-10-15T20:02:12.826952,-20.435114503816795,-3.2748091603053435,6.106870229007634,-0.0718260498046875,-0.488417138671875,8.2360537109375,30.741764705882353
2025-10-15T20:02:12.850543,-11.641221374045802,-5.816793893129771,3.480916030534351,-0.4070142822265625,-0.82360537109375,9.354145886230468,30.741764705882353
2025-10-15T20:02:12.867455,-1.7328244274809161,-0.21374045801526717,0.07633587786259542,0.08379705810546874,-0.9816226806640624,8.501810095214843,30.882941176470588
2025-10-15T20:02:12.889909,4.1679389312977095,-2.0076335877862594,-0.12213740458015267,0.00718260498046875,-1.1563994018554686,9.49300958251953,30.788823529411765
2025-10-15T20:02:12.912534,13.740458015267176,-5.625954198473282,-5.435114503816794,1.0989385620117187,-1.3742717529296875,9.157821350097656,30.788823529411765
2025-10-15T20:02:12.929558,17.900763358778626,-2.351145038167939,-7.038167938931298,-0.3447650390625,-0.7422025146484375,10.678139404296875,30.788823529411765
2025-10-15T20:02:12.951857,17.587786259541986,-1.0229007633587786,-8.717557251908397,0.46686932373046874,-0.02633621826171875,10.065223779296874,30.741764705882353
2025-10-15T20:02:12.973558,26.900763358778626,-4.847328244274809,-9.84732824427481,1.9704279663085937,-1.3646949462890625,10.934318981933593,30.741764705882353
2025-10-15T20:02:12.990750,25.53435114503817,-3.3740458015267176,-11.755725190839694,1.2952630981445312,-1.1875240234375,10.350133776855468,30.741764705882353
2025-10-15T20:02:13.012800,30.702290076335878,-2.1526717557251906,-13.67175572519084,0.3447650390625,-1.177947216796875,10.151415039062499,30.788823529411765
2025-10-15T20:02:13.033640,30.85496183206107,-1.6412213740458015,-11.48091603053435,0.603338818359375,-0.8667010009765624,10.211270080566406,30.835882352941177
2025-10-15T20:02:13.051829,30.14503816793893,-1.0458015267175573,-11.49618320610687,-0.6655880615234374,-1.7094599853515624,10.326191760253906,30.835882352941177
2025-10-15T20:02:13.074001,26.106870229007633,-1.4809160305343512,-7.557251908396947,1.0342951171875,-0.1867477294921875,11.44667813720703,30.741764705882353
2025-10-15T20:02:13.093913,22.885496183206108,-1.8396946564885497,-6.320610687022901,0.34237083740234375,0.6464344482421874,10.386046801757812,30.69470588235294
2025-10-15T20:02:13.112834,17.48854961832061,-2.0,-2.763358778625954,-0.2609679809570312,0.8834604125976562,10.70686982421875,30.788823529411765
2025-10-15T20:02:13.135399,9.603053435114504,-0.4198473282442748,-3.763358778625954,1.4939818359375,0.7733271362304687,8.810662109374999,30.741764705882353
2025-10-15T20:02:13.154150,2.1068702290076335,-2.954198473282443,1.1145038167938932,1.9752163696289062,0.011971008300781249,9.698910925292969,30.741764705882353
2025-10-15T20:02:13.174240,-2.2595419847328246,-7.0,3.435114503816794,1.2665326782226562,2.4947581298828125,9.976638317871092,30.69470588235294
2025-10-15T20:02:13.197021,-9.595419847328245,3.717557251908397,1.5572519083969465,2.480392919921875,-0.9337386474609375,10.64222637939453,30.741764705882353
2025-10-15T20:02:13.214398,-7.251908396946565,3.015267175572519,2.045801526717557,1.2761094848632812,0.9816226806640624,8.125920434570313,30.69470588235294
2025-10-15T20:02:13.235466,-7.969465648854962,0.732824427480916,4.648854961832061,-0.011971008300781249,-0.11731588134765625,9.689334118652344,30.64764705882353
2025-10-15T20:02:13.258562,-11.259541984732824,-0.19083969465648856,5.259541984732825,0.3854664672851562,1.1013327636718748,9.509768994140625,30.64764705882353
2025-10-15T20:02:13.275456,-11.648854961832061,3.572519083969466,5.137404580152672,1.0319009155273438,0.10773907470703124,9.852139831542969,30.69470588235294
2025-10-15T20:02:13.297520,-13.061068702290076,2.5343511450381677,5.5038167938931295,0.5339069702148437,0.7493851196289062,7.42441934814453,30.835882352941177
2025-10-15T20:02:13.320730,-16.916030534351144,0.5190839694656488,5.229007633587786,0.5434837768554687,-0.55545478515625,8.008604553222655,30.835882352941177
2025-10-15T20:02:13.337652,-13.450381679389313,3.068702290076336,5.221374045801527,1.0366893188476562,-0.20350714111328125,8.549694128417968,30.741764705882353
2025-10-15T20:02:13.359835,-9.786259541984732,3.7786259541984735,3.8244274809160306,0.7781155395507812,-0.47644613037109373,7.4794859863281244,30.835882352941177
2025-10-15T20:02:13.382858,-5.9465648854961835,-1.2595419847328244,2.1755725190839694,0.44053310546874996,-0.27293898925781246,8.200140686035155,30.741764705882353
2025-10-15T20:02:13.399748,-5.969465648854962,0.4580152671755725,0.7938931297709924,0.6440402465820312,-0.32561142578124996,8.418013037109375,30.741764705882353
2025-10-15T20:02:13.421940,-3.900763358778626,2.549618320610687,-0.15267175572519084,1.0726023437499999,1.1731588134765625,9.236830004882812,30.741764705882353
2025-10-15T20:02:13.444037,-9.992366412213741,-0.9618320610687023,2.900763358778626,0.7062894897460937,-0.1771709228515625,8.418013037109375,30.69470588235294
2025-10-15T20:02:13.460962,-12.526717557251908,-0.007633587786259542,2.50381679389313,0.20829554443359374,0.9959878906249999,9.605537060546874,30.69470588235294
2025-10-15T20:02:13.483150,-19.389312977099237,1.900763358778626,3.8396946564885495,0.023942016601562498,-2.6431986328124997,8.59278975830078,30.788823529411765
2025-10-15T20:02:13.504389,0.8244274809160306,3.6793893129770994,-3.427480916030534,-0.09816226806640624,-0.5195417602539062,9.524134204101562,30.60058823529412
2025-10-15T20:02:13.521513,-4.412213740458015,-3.83206106870229,-0.030534351145038167,0.7733271362304687,-1.1659762084960936,8.674192614746094,30.741764705882353
2025-10-15T20:02:13.543430,13.290076335877863,0.4351145038167939,-11.488549618320612,1.7717092285156248,1.6711527587890624,10.589553942871094,30.741764705882353
2025-10-15T20:02:13.564595,-12.709923664122137,-1.1755725190839694,1.3740458015267176,0.5746083984375,0.5602431884765625,9.028534460449219,30.835882352941177
2025-10-15T20:02:13.582185,1.5267175572519085,1.5725190839694656,-4.190839694656488,-0.11252747802734374,1.6448165405273436,9.988609326171874,30.788823529411765
2025-10-15T20:02:13.604054,-12.022900763358779,2.816793893129771,-1.8549618320610688,0.2753331909179687,-0.8451531860351562,9.7683427734375,30.741764705882353
2025-10-15T20:02:13.624783,-6.290076335877862,4.32824427480916,-5.961832061068702,0.16998831787109375,0.7445967163085937,9.394847314453125,30.64764705882353
2025-10-15T20:02:13.641927,-8.16030534351145,5.412213740458015,-5.351145038167939,0.00718260498046875,-0.9816226806640624,10.694898815917968,30.835882352941177
2025-10-15T20:02:13.664572,-8.16793893129771,5.450381679389313,-7.519083969465649,-0.011971008300781249,0.4429273071289062,9.227253198242186,30.788823529411765
2025-10-15T20:02:13.687074,-1.183206106870229,4.526717557251908,-9.106870229007633,0.08379705810546874,-1.0486603271484374,10.32379755859375,30.64764705882353
2025-10-15T20:02:13.703994,0.8931297709923665,7.7251908396946565,-10.129770992366412,0.4836287353515625,-0.25139117431640623,9.821015209960937,30.788823529411765
2025-10-15T20:02:13.725874,5.679389312977099,2.6106870229007635,-10.129770992366412,0.47644613037109373,-2.1260510742187497,9.090783703613281,30.69470588235294
2025-10-15T20:02:13.748380,8.564885496183207,3.885496183206107,-10.465648854961833,0.13407529296874998,-0.3327940307617187,9.612719665527344,30.835882352941177
2025-10-15T20:02:13.765380,12.625954198473282,1.4122137404580153,-11.641221374045802,2.6144682128906247,-1.426944189453125,10.160991845703125,30.64764705882353
2025-10-15T20:02:13.787355,10.977099236641221,0.1450381679389313,-9.083969465648854,0.2561795776367187,0.36152445068359373,9.284714038085937,30.741764705882353
2025-10-15T20:02:13.810553,9.80916030534351,-1.366412213740458,-4.67175572519084,0.5099649536132812,0.5267243652343749,11.243170996093749,30.741764705882353
2025-10-15T20:02:13.827569,6.5038167938931295,-4.633587786259542,-3.6946564885496183,-0.1580173095703125,0.8068459594726562,11.63821427001953,30.788823529411765
2025-10-15T20:02:13.849512,-1.282442748091603,-1.717557251908397,-3.732824427480916,1.5562310791015623,-2.5330653564453125,7.912836486816405,30.788823529411765
2025-10-15T20:02:13.872700,-7.0534351145038165,1.251908396946565,3.1068702290076335,0.24181436767578124,0.4836287353515625,10.04846436767578,30.69470588235294
2025-10-15T20:02:13.889627,-11.19083969465649,1.916030534351145,3.801526717557252,2.3319524169921872,0.5817910034179687,7.8912886718749995,30.835882352941177
2025-10-15T20:02:13.911346,-9.770992366412214,2.145038167938931,5.687022900763359,-0.7230489013671875,1.905784521484375,10.599130749511717,30.788823529411765
2025-10-15T20:02:13.935266,-10.412213740458014,3.6259541984732824,3.3282442748091605,0.5865794067382812,-0.22505495605468748,9.236830004882812,30.788823529411765
2025-10-15T20:02:13.952186,-10.282442748091603,-0.13740458015267176,3.5801526717557253,1.8914193115234375,-1.7884686401367187,6.926425402832031,30.741764705882353
2025-10-15T20:02:13.972960,-9.793893129770993,1.6564885496183206,4.923664122137405,2.9568390502929685,1.5131354492187499,8.207323291015625,30.69470588235294
2025-10-15T20:02:13.995729,-14.251908396946565,3.83206106870229,4.557251908396947,0.33518823242187495,-0.9121908325195311,9.062053283691405,30.741764705882353
2025-10-15T20:02:14.013482,-10.801526717557252,1.5114503816793894,3.717557251908397,0.6440402465820312,-0.10295067138671875,8.559270935058594,30.741764705882353
2025-10-15T20:02:14.033316,-14.793893129770993,3.6946564885496183,5.366412213740458,-0.0430956298828125,-0.6392518432617187,8.315062365722655,30.741764705882353
2025-10-15T20:02:14.056152,-8.610687022900763,-0.7786259541984732,4.595419847328245,1.0702081420898437,-1.0127473022460938,8.815450512695312,30.835882352941177
2025-10-15T20:02:14.075188,-8.587786259541986,-2.0229007633587788,4.465648854961832,0.4165910888671875,-1.0654197387695312,7.948749511718749,30.69470588235294
2025-10-15T20:02:14.093757,-8.229007633587786,-3.732824427480916,4.580152671755725,0.22266075439453123,-0.22744915771484372,8.228871105957031,30.882941176470588
2025-10-15T20:02:14.116201,-7.519083969465649,-6.419847328244275,5.083969465648855,0.622492431640625,-0.6392518432617187,8.963891015625,30.69470588235294
2025-10-15T20:02:14.136100,-4.732824427480916,-5.122137404580153,5.106870229007634,-0.1580173095703125,-0.6009446166992187,9.10993731689453,30.69470588235294
2025-10-15T20:02:14.153916,-5.824427480916031,-2.267175572519084,4.656488549618321,0.3758896606445312,-0.13407529296874998,10.014945544433592,30.741764705882353
2025-10-15T20:02:14.176036,-13.030534351145038,4.587786259541985,1.984732824427481,2.262520568847656,-2.2601263671875,9.184157568359375,30.69470588235294
2025-10-15T20:02:14.196808,-1.0687022900763359,-1.5267175572519085,2.1068702290076335,0.17238251953125,-0.17477672119140625,10.874463940429687,30.64764705882353
2025-10-15T20:02:14.213843,-2.1755725190839694,-4.893129770992366,1.8778625954198473,0.3950432739257812,-0.3806780639648437,9.947907897949218,30.741764705882353
2025-10-15T20:02:14.235768,3.0763358778625953,3.732824427480916,0.19083969465648856,0.6871358764648438,-0.7038952880859375,10.445901843261717,30.741764705882353
2025-10-15T20:02:14.257331,2.33587786259542,0.0,-1.099236641221374,0.8810662109374999,-0.3854664672851562,9.409212524414063,30.788823529411765
2025-10-15T20:02:14.274342,6.076335877862595,-0.916030534351145,-2.404580152671756,1.4891934326171874,0.3447650390625,9.871293444824218,30.788823529411765
2025-10-15T20:02:14.296125,7.236641221374046,2.801526717557252,-3.6412213740458017,-0.5746083984375,1.5490484741210937,9.303867651367186,30.741764705882353
2025-10-15T20:02:14.318135,16.015267175572518,1.297709923664122,-8.641221374045802,1.5538368774414062,-1.0821791503906248,9.325415466308593,30.741764705882353
2025-10-15T20:02:14.335066,14.80916030534351,2.687022900763359,-8.961832061068701,0.5195417602539062,0.8714894042968749,8.568847741699217,30.741764705882353
2025-10-15T20:02:14.357133,19.30534351145038,-3.595419847328244,-10.213740458015268,0.06464344482421874,1.9129671264648436,9.945513696289062,30.69470588235294
2025-10-15T20:02:14.380034,14.473282442748092,-2.5343511450381677,-10.816793893129772,1.1707646118164061,-0.6272808349609375,9.272743029785156,30.788823529411765
2025-10-15T20:02:14.396955,10.320610687022901,1.3358778625954197,-8.98473282442748,0.00718260498046875,-0.03591302490234375,10.479420666503906,30.741764705882353
2025-10-15T20:02:14.418876,2.969465648854962,-3.0763358778625953,-6.557251908396947,0.5698199951171875,0.6057330200195312,10.522516296386717,30.741764705882353
2025-10-15T20:02:14.442272,-0.6106870229007634,-4.6106870229007635,-2.9923664122137406,0.40462008056640625,-0.5099649536132812,10.577582934570312,30.741764705882353
2025-10-15T20:02:14.459157,-0.4198473282442748,-3.0,-2.0076335877862594,0.18914193115234373,-0.13646949462890623,10.175357055664062,30.788823529411765
2025-10-15T20:02:14.480237,1.7709923664122138,0.8854961832061069,-3.854961832061069,1.7238251953125,-1.5921441040039062,10.275913525390624,30.741764705882353
2025-10-15T20:02:14.503355,1.0763358778625953,2.4580152671755724,-2.450381679389313,0.41898529052734373,0.34715924072265625,8.772354882812499,30.741764705882353
2025-10-15T20:02:14.520729,5.091603053435114,-0.366412213740458,0.11450381679389313,0.6416460449218749,-0.6057330200195312,10.000580334472655,30.788823529411765
2025-10-15T20:02:14.541004,4.801526717557252,0.7709923664122137,-0.9618320610687023,0.928950244140625,0.5267243652343749,9.586383447265625,30.741764705882353
2025-10-15T20:02:14.563891,5.0534351145038165,2.877862595419847,0.2748091603053435,0.603338818359375,-0.4860229370117187,9.686939916992188,30.69470588235294
2025-10-15T20:02:14.582117,4.595419847328245,3.8396946564885495,0.19083969465648856,0.7996633544921875,0.699106884765625,8.497021691894531,30.882941176470588
2025-10-15T20:02:14.601630,1.0534351145038168,2.801526717557252,1.4274809160305344,0.7254431030273437,-0.0718260498046875,8.935160595703124,30.835882352941177
2025-10-15T20:02:14.624220,-0.48854961832061067,3.2442748091603053,1.2061068702290076,0.49320554199218747,0.679953271484375,8.585607153320312,30.788823529411765
2025-10-15T20:02:14.643330,-3.5572519083969465,4.358778625954199,2.0610687022900764,0.5243301635742187,0.14125789794921875,8.520963708496094,30.741764705882353
2025-10-15T20:02:14.662082,-6.519083969465649,2.213740458015267,2.6793893129770994,1.4820108276367188,0.4908113403320312,8.398859423828124,30.741764705882353
2025-10-15T20:02:14.685234,-11.534351145038167,1.1603053435114503,5.740458015267175,-0.9576806640625,0.7254431030273437,7.615955480957031,30.64764705882353
2025-10-15T20:02:14.704410,-12.114503816793894,1.816793893129771,5.534351145038168,0.5482721801757812,1.5682020874023437,7.189787585449218,30.835882352941177
2025-10-15T20:02:14.724111,-14.908396946564885,2.015267175572519,4.076335877862595,0.5817910034179687,-0.12210428466796874,8.046911779785155,30.741764705882353
2025-10-15T20:02:14.746745,-15.877862595419847,-1.3129770992366412,6.931297709923665,0.4165910888671875,-0.46208092041015625,8.049305981445311,30.788823529411765
2025-10-15T20:02:14.764942,-15.16793893129771,-1.3129770992366412,6.824427480916031,0.6560112548828124,-0.373495458984375,7.7763669921875,30.788823529411765
2025-10-15T20:02:14.785254,-15.297709923664122,-1.1068702290076335,7.0534351145038165,0.011971008300781249,-0.8259995727539062,8.039729174804688,30.741764705882353
2025-10-15T20:02:14.808106,-12.404580152671755,-2.1603053435114505,7.145038167938932,0.6679822631835937,0.15083470458984374,8.700528833007812,30.788823529411765
2025-10-15T20:02:14.825517,-9.938931297709924,-2.6412213740458017,7.435114503816794,0.44532150878906246,-0.3950432739257812,9.145850341796875,30.788823529411765
2025-10-15T20:02:14.846702,-10.083969465648854,-0.37404580152671757,7.114503816793893,2.094926452636719,0.8786720092773437,10.242394702148436,30.788823529411765
2025-10-15T20:02:14.869838,-17.35114503816794,6.358778625954199,6.419847328244275,-0.16759411621093748,-2.9640216552734375,7.659051110839843,30.788823529411765
2025-10-15T20:02:14.886755,-4.488549618320611,-2.198473282442748,5.6183206106870225,1.0127473022460938,-0.6368576416015624,10.101136804199218,30.741764705882353
2025-10-15T20:02:14.908655,-13.267175572519085,-1.015267175572519,5.648854961832061,0.5746083984375,0.8164227661132812,8.717288244628906,30.741764705882353
2025-10-15T20:02:14.932046,0.4122137404580153,7.374045801526718,3.519083969465649,0.7302315063476562,0.354341845703125,10.575188732910156,30.741764705882353
2025-10-15T20:02:14.949007,-2.3053435114503817,0.4122137404580153,-0.44274809160305345,0.19871873779296872,-1.4867992309570313,9.437942944335937,30.788823529411765
2025-10-15T20:02:14.971056,11.236641221374045,-1.83206106870229,-4.022900763358779,0.3806780639648437,0.2609679809570312,10.572794531249999,30.741764705882353
2025-10-15T20:02:14.993934,8.312977099236642,-0.5954198473282443,-5.755725190839694,-0.1005564697265625,0.16280571289062498,10.32379755859375,30.741764705882353
2025-10-15T20:02:15.010836,15.267175572519085,1.0,-9.068702290076336,1.1731588134765625,0.51714755859375,10.137049829101562,30.788823529411765
2025-10-15T20:02:15.032968,14.98473282442748,1.0305343511450382,-9.938931297709924,1.2306196533203124,0.5889736083984375,9.725247143554688,30.788823529411765
2025-10-15T20:02:15.056164,21.137404580152673,-3.0381679389312977,-13.793893129770993,0.47884033203125,-0.7565677246093749,9.595960253906249,30.69470588235294
2025-10-15T20:02:15.073282,22.595419847328245,-3.7251908396946565,-14.648854961832061,2.683900061035156,-1.6065093139648436,10.302249743652343,30.741764705882353
2025-10-15T20:02:15.094970,26.389312977099237,-0.2748091603053435,-14.16030534351145,1.4317325927734375,0.32561142578124996,10.369287390136718,30.69470588235294
2025-10-15T20:02:15.118250,19.129770992366414,1.2442748091603053,-14.038167938931299,0.6153098266601562,-0.16280571289062498,9.497797985839844,30.835882352941177
2025-10-15T20:02:15.135152,19.450381679389313,-3.7251908396946565,-11.366412213740459,1.1037269653320312,-0.7757213378906249,9.888052856445311,30.741764705882353
2025-10-15T20:02:15.155852,15.50381679389313,-1.8549618320610688,-10.763358778625955,0.8978256225585937,0.603338818359375,9.74200655517578,30.741764705882353
2025-10-15T20:02:15.178814,12.48091603053435,-3.885496183206107,-8.587786259541986,0.8690952026367187,0.11731588134765625,10.599130749511717,30.788823529411765
2025-10-15T20:02:15.196579,5.442748091603053,0.19083969465648856,-7.038167938931298,0.5530605834960938,0.584185205078125,9.361328491210937,30.788823529411765
2025-10-15T20:02:15.216784,1.7709923664122138,-1.5267175572519085,-5.320610687022901,1.4341267944335936,0.07900865478515624,10.28549033203125,30.835882352941177
2025-10-15T20:02:15.239439,-5.297709923664122,-0.8778625954198473,-3.5877862595419847,1.4724340209960938,0.93852705078125,10.110713610839843,30.788823529411765
2025-10-15T20:02:15.257640,-9.786259541984732,0.0,-1.6717557251908397,0.6679822631835937,0.37828386230468747,9.86411083984375,30.788823529411765
2025-10-15T20:02:15.277233,-16.641221374045802,0.10687022900763359,-1.0458015267175573,0.040701428222656245,1.0558429321289062,8.772354882812499,30.741764705882353
2025-10-15T20:02:15.299770,-20.625954198473284,-0.2748091603053435,0.21374045801526717,-0.6631938598632812,0.43574470214843747,9.1554271484375,30.69470588235294
2025-10-15T20:02:15.318387,-25.938931297709924,-0.32061068702290074,2.5343511450381677,2.3535002319335936,0.39264907226562495,9.430760339355468,30.835882352941177
2025-10-15T20:02:15.337571,-34.19847328244275,5.267175572519084,2.198473282442748,-1.0366893188476562,0.6727706665039062,7.170633972167968,30.741764705882353
2025-10-15T20:02:15.360334,-33.06106870229008,2.7022900763358777,4.190839694656488,0.6679822631835937,0.8164227661132812,8.068459594726562,30.69470588235294
2025-10-15T20:02:15.379841,-35.06870229007634,-0.7175572519083969,7.022900763358779,0.699106884765625,1.6735469604492186,8.391676818847655,30.788823529411765
2025-10-15T20:02:15.398164,-32.55725190839695,3.946564885496183,4.351145038167939,1.8076222534179687,-1.66636435546875,7.56567724609375,30.741764705882353
2025-10-15T20:02:15.420746,-30.65648854961832,0.5877862595419847,6.0534351145038165,0.6057330200195312,0.7781155395507812,9.749189160156249,30.788823529411765
2025-10-15T20:02:15.441115,-23.9618320610687,0.9694656488549618,2.786259541984733,1.1348515869140625,-0.30406361083984373,7.256825231933593,30.64764705882353
2025-10-15T20:02:15.458548,-21.442748091603054,0.29770992366412213,2.717557251908397,-1.5969325073242187,-0.6536170532226562,8.358157995605469,30.741764705882353
2025-10-15T20:02:15.480872,-14.977099236641221,4.114503816793893,-1.8473282442748091,0.3495534423828125,-0.74699091796875,9.404424121093749,30.788823529411765
2025-10-15T20:02:15.502178,-10.236641221374045,-0.2595419847328244,1.748091603053435,0.2059013427734375,-0.5123591552734374,8.762778076171875,30.741764705882353
2025-10-15T20:02:15.519068,-4.770992366412214,1.8854961832061068,-2.267175572519084,-0.06943184814453125,-0.36391865234375,8.813056311035156,30.788823529411765
2025-10-15T20:02:15.541380,-1.618320610687023,0.9312977099236641,-4.083969465648855,0.5434837768554687,-0.7541735229492187,8.686163623046875,30.835882352941177
2025-10-15T20:02:15.563029,-2.7251908396946565,0.4351145038167939,-3.6717557251908395,1.1013327636718748,0.33039982910156246,10.213664282226562,30.741764705882353
2025-10-15T20:02:15.579912,-2.3053435114503817,1.2366412213740459,-5.526717557251908,1.0342951171875,0.34237083740234375,9.550470422363281,30.788823529411765
2025-10-15T20:02:15.602107,-2.068702290076336,0.21374045801526717,-5.221374045801527,0.5147533569335937,-0.33758243408203126,10.065223779296874,30.741764705882353
2025-10-15T20:02:15.624256,-0.12213740458015267,4.198473282442748,-7.297709923664122,-0.2609679809570312,-0.35194764404296874,9.45470235595703,30.788823529411765
2025-10-15T20:02:15.641144,4.404580152671755,2.9923664122137406,-7.67175572519084,0.1292868896484375,-0.5267243652343749,9.708487731933593,30.788823529411765
2025-10-15T20:02:15.663229,6.099236641221374,2.099236641221374,-9.954198473282442,0.08858546142578125,-0.07900865478515624,9.425971936035156,30.93
2025-10-15T20:02:15.685789,14.587786259541986,0.816793893129771,-12.290076335877863,0.033518823242187495,-0.6943184814453125,9.928754284667969,30.788823529411765
2025-10-15T20:02:15.702666,19.015267175572518,-1.9389312977099236,-14.374045801526718,0.6488286499023437,-0.08858546142578125,9.97903251953125,30.741764705882353
2025-10-15T20:02:15.725052,24.6793893129771,2.5343511450381677,-13.748091603053435,-0.06943184814453125,-0.229843359375,10.158597644042969,30.835882352941177
2025-10-15T20:02:15.748450,29.076335877862597,0.4732824427480916,-17.0381679389313,-2.0829554443359375,-0.15322890625,8.329427575683594,30.741764705882353
2025-10-15T20:02:15.765333,30.16793893129771,-2.6106870229007635,-18.412213740458014,-0.7206546997070312,0.948103857421875,8.700528833007812,30.69470588235294
2025-10-15T20:02:15.787274,31.106870229007633,-12.67175572519084,-18.282442748091604,2.370259643554687,-1.024718310546875,9.13627353515625,30.788823529411765
2025-10-15T20:02:15.810776,31.549618320610687,-4.755725190839694,-16.15267175572519,0.5123591552734374,0.32082302246093747,12.562376110839843,30.741764705882353
2025-10-15T20:02:15.827687,24.53435114503817,4.442748091603053,-14.251908396946565,0.8403647827148437,-0.229843359375,10.050858569335936,30.741764705882353
2025-10-15T20:02:15.848718,20.938931297709924,0.816793893129771,-12.16030534351145,0.5027823486328125,-0.05746083984375,9.083601098632812,30.741764705882353
2025-10-15T20:02:15.871618,16.633587786259543,-5.366412213740458,-11.702290076335878,1.209071838378906,0.8355763793945312,9.49300958251953,30.835882352941177
2025-10-15T20:02:15.888956,9.290076335877863,-7.740458015267175,-7.633587786259542,0.5099649536132812,0.6464344482421874,10.153809240722655,30.788823529411765
2025-10-15T20:02:15.909567,5.824427480916031,-1.6030534351145038,-6.091603053435114,1.2617442749023438,0.3902548706054687,10.512939489746094,30.741764705882353
2025-10-15T20:02:15.932386,-1.8702290076335877,0.7862595419847328,-4.068702290076335,0.5722141967773438,0.8810662109374999,9.220070593261719,30.835882352941177
2025-10-15T20:02:15.950208,-5.435114503816794,-2.9160305343511452,-4.3893129770992365,0.45010991210937495,0.5386953735351562,8.422801440429687,30.741764705882353
2025-10-15T20:02:15.970347,-7.679389312977099,-4.038167938931298,-3.6564885496183206,0.3591302490234375,-1.2138602416992186,9.610325463867188,30.835882352941177
2025-10-15T20:02:15.993069,-7.145038167938932,1.5114503816793894,-4.9465648854961835,1.0438719238281249,0.74699091796875,9.10993731689453,30.788823529411765
2025-10-15T20:02:16.011309,-12.01526717557252,2.969465648854962,-2.1603053435114505,-0.28969840087890625,0.3854664672851562,8.542511523437499,30.788823529411765
2025-10-15T20:02:16.031137,-11.13740458015267,-3.213740458015267,-4.312977099236641,0.7589619262695312,0.718260498046875,7.970297326660156,30.741764705882353
2025-10-15T20:02:16.053885,-15.244274809160306,-3.122137404580153,-2.4198473282442747,-0.040701428222656245,-0.3950432739257812,8.537723120117187,30.788823529411765
2025-10-15T20:02:16.072539,-13.740458015267176,7.458015267175573,-4.320610687022901,-1.8052280517578123,-0.1005564697265625,8.959102612304687,30.741764705882353
2025-10-15T20:02:16.091758,-19.99236641221374,-0.366412213740458,-0.6106870229007634,-0.20829554443359374,0.9265560424804687,8.990227233886719,30.835882352941177
2025-10-15T20:02:16.114562,-18.564885496183205,-3.9618320610687023,-4.427480916030534,1.3527239379882812,-0.8451531860351562,9.26316622314453,30.788823529411765
2025-10-15T20:02:16.134176,-15.473282442748092,2.900763358778626,-4.427480916030534,1.1923124267578125,0.6751648681640625,7.8721350585937495,30.741764705882353
2025-10-15T20:02:16.152517,-8.717557251908397,-0.5038167938931297,-5.900763358778626,1.6615759521484375,-0.37828386230468747,8.28633194580078,30.741764705882353
2025-10-15T20:02:16.175171,-9.34351145038168,-3.519083969465649,-9.679389312977099,1.4915876342773438,-0.4285620971679687,8.142679846191406,30.741764705882353
2025-10-15T20:02:16.195556,-4.1603053435114505,1.0610687022900764,-9.351145038167939,1.1133037719726562,-0.3950432739257812,9.217676391601563,30.788823529411765
2025-10-15T20:02:16.213135,-4.32824427480916,3.4656488549618323,-9.473282442748092,0.7805097412109374,0.9959878906249999,8.674192614746094,30.741764705882353
2025-10-15T20:02:16.235539,-13.557251908396946,0.9541984732824428,-8.534351145038167,0.8092401611328125,0.507570751953125,8.913612780761719,30.741764705882353
2025-10-15T20:02:16.256991,-17.30534351145038,4.0,-7.717557251908397,0.1005564697265625,1.2425906616210938,10.175357055664062,30.741764705882353
2025-10-15T20:02:16.273906,-21.87786259541985,7.0534351145038165,-7.358778625954199,0.2561795776367187,1.2473790649414063,9.028534460449219,30.69470588235294
2025-10-15T20:02:16.296317,-18.404580152671755,8.114503816793894,-9.068702290076336,0.06703764648437499,0.7278373046875,9.555258825683593,30.69470588235294
2025-10-15T20:02:16.318455,-13.740458015267176,5.305343511450381,-10.442748091603054,1.5610194824218748,-0.0526724365234375,8.674192614746094,30.788823529411765
2025-10-15T20:02:16.335356,-4.343511450381679,6.259541984732825,-12.877862595419847,0.04548983154296875,-0.7158662963867187,9.342174877929686,30.741764705882353
2025-10-15T20:02:16.357900,-4.251908396946565,11.114503816793894,-11.86259541984733,0.3136404174804687,0.258573779296875,8.609549169921875,30.69470588235294
2025-10-15T20:02:16.380907,-4.732824427480916,5.66412213740458,-11.938931297709924,0.49320554199218747,-0.6943184814453125,9.5001921875,30.741764705882353
2025-10-15T20:02:16.397953,-6.465648854961832,5.793893129770993,-13.526717557251908,0.38307226562499996,0.2657563842773437,10.160991845703125,30.788823529411765
2025-10-15T20:02:16.420097,-7.458015267175573,4.175572519083969,-12.251908396946565,0.36391865234375,0.28969840087890625,9.244012609863281,30.741764705882353
2025-10-15T20:02:16.443296,-3.122137404580153,3.7709923664122136,-12.664122137404581,0.5219359619140624,0.047884033203124995,9.773131176757811,30.788823529411765
2025-10-15T20:02:16.460164,-0.5725190839694656,0.10687022900763359,-11.770992366412214,-0.1388636962890625,-0.12689268798828124,8.968679418945312,30.741764705882353
2025-10-15T20:02:16.481495,7.427480916030534,0.4961832061068702,-11.770992366412214,0.6871358764648438,-0.5363011718749999,9.284714038085937,30.788823529411765
2025-10-15T20:02:16.504561,10.442748091603054,-3.236641221374046,-13.15267175572519,0.9074024291992187,0.9169792358398436,8.389282617187499,30.835882352941177
2025-10-15T20:02:16.521437,9.885496183206106,-3.8702290076335877,-14.038167938931299,0.41898529052734373,-0.22505495605468748,9.323021264648437,30.788823529411765
2025-10-15T20:02:16.542503,12.725190839694656,-6.3893129770992365,-12.083969465648854,0.2346317626953125,0.5123591552734374,9.871293444824218,30.741764705882353
2025-10-15T20:02:16.565435,17.083969465648856,-4.763358778625954,-14.145038167938932,0.28490999755859375,-0.23702596435546874,10.251971508789062,30.788823529411765
2025-10-15T20:02:16.582779,14.854961832061068,-6.580152671755725,-14.114503816793894,0.9074024291992187,-0.814028564453125,9.483432775878907,30.788823529411765
2025-10-15T20:02:16.603339,17.47328244274809,-5.9541984732824424,-13.145038167938932,0.6631938598632812,-0.7565677246093749,9.89523546142578,30.741764705882353
2025-10-15T20:02:16.626174,13.946564885496183,-8.603053435114504,-12.893129770992367,0.22026655273437498,0.4860229370117187,10.005368737792969,30.741764705882353
2025-10-15T20:02:16.643938,11.114503816793894,-8.0,-12.183206106870228,0.5817910034179687,0.0383072265625,10.141838232421874,30.835882352941177
2025-10-15T20:02:16.664034,11.65648854961832,-6.9465648854961835,-12.083969465648854,1.005564697265625,-0.7015010864257812,10.36210478515625,30.788823529411765
2025-10-15T20:02:16.686777,7.175572519083969,-7.061068702290076,-10.694656488549619,1.1540052001953125,-0.737414111328125,10.13226142578125,30.64764705882353
2025-10-15T20:02:16.704976,7.068702290076335,-5.572519083969466,-10.603053435114504,0.4908113403320312,0.2920926025390625,9.87608184814453,30.835882352941177
2025-10-15T20:02:16.724601,5.824427480916031,-4.297709923664122,-9.610687022900763,0.7757213378906249,-0.22744915771484372,10.268730920410155,30.788823529411765
2025-10-15T20:02:16.747502,4.877862595419847,-4.206106870229007,-9.83969465648855,1.0031704956054688,-0.4070142822265625,10.110713610839843,30.69470588235294
2025-10-15T20:02:16.766560,3.1068702290076335,-1.534351145038168,-8.595419847328245,1.0031704956054688,0.12210428466796874,10.261548315429687,30.835882352941177
2025-10-15T20:02:16.785349,0.7480916030534351,1.1984732824427482,-8.549618320610687,0.737414111328125,0.4477157104492187,9.76116016845703,30.741764705882353
2025-10-15T20:02:16.808052,-1.4961832061068703,1.1755725190839694,-8.206106870229007,0.7230489013671875,-0.031124621582031248,9.576806640625,30.741764705882353
2025-10-15T20:02:16.827101,-2.1755725190839694,3.9770992366412212,-7.908396946564886,0.8547299926757812,0.47884033203125,9.983820922851562,30.788823529411765
2025-10-15T20:02:16.845870,-7.305343511450381,7.66412213740458,-7.450381679389313,0.86191259765625,0.4955997436523437,9.739612353515625,30.64764705882353
2025-10-15T20:02:16.868327,-9.641221374045802,6.442748091603053,-7.145038167938932,2.109291662597656,0.5410895751953124,10.026916552734374,30.741764705882353
2025-10-15T20:02:16.887785,-15.259541984732824,9.274809160305344,-6.847328244274809,0.04548983154296875,1.3239935180664062,9.457096557617186,30.741764705882353
2025-10-15T20:02:16.906837,-19.427480916030536,8.900763358778626,-5.3816793893129775,0.6871358764648438,0.5770026000976562,8.765172277832031,30.69470588235294
2025-10-15T20:02:16.929379,-26.763358778625953,11.587786259541986,-4.351145038167939,1.2234370483398436,0.28490999755859375,8.896853369140624,30.741764705882353
2025-10-15T20:02:16.948473,-26.49618320610687,9.854961832061068,-4.320610687022901,0.9145850341796874,0.3495534423828125,9.404424121093749,30.69470588235294
2025-10-15T20:02:16.968052,-29.068702290076335,13.198473282442748,-2.49618320610687,-0.354341845703125,0.6177040283203125,9.387664709472656,30.64764705882353
2025-10-15T20:02:16.990689,-27.137404580152673,11.01526717557252,-5.709923664122138,0.689530078125,0.11252747802734374,8.722076647949219,30.741764705882353
2025-10-15T20:02:17.009388,-22.748091603053435,11.694656488549619,-4.404580152671755,0.9959878906249999,-0.07422025146484375,8.382100012207031,30.741764705882353
2025-10-15T20:02:17.029199,-20.30534351145038,10.244274809160306,-4.137404580152672,0.7493851196289062,0.3902548706054687,7.6614453125,30.788823529411765
2025-10-15T20:02:17.052007,-15.946564885496183,10.938931297709924,-4.938931297709924,-0.07900865478515624,-0.229843359375,7.654262707519531,30.835882352941177
2025-10-15T20:02:17.071021,-12.67175572519084,8.01526717557252,-5.206106870229007,-0.40940848388671874,-0.239420166015625,7.754819177246094,30.741764705882353
2025-10-15T20:02:17.089637,-8.15267175572519,5.977099236641221,-5.717557251908397,-0.21308394775390624,-0.5051765502929687,7.414842541503906,30.835882352941177
2025-10-15T20:02:17.112005,-4.427480916030534,3.595419847328244,-5.595419847328245,0.16759411621093748,0.5506663818359374,8.130708837890625,30.69470588235294
2025-10-15T20:02:17.131878,-2.3740458015267176,1.6641221374045803,-5.290076335877862,-0.3399766357421875,0.3064578125,7.829039428710937,30.788823529411765
2025-10-15T20:02:17.149678,0.32061068702290074,-0.04580152671755725,-5.564885496183206,0.02154781494140625,0.5267243652343749,8.892064965820312,30.788823529411765
2025-10-15T20:02:17.171766,-0.19083969465648856,-5.396946564885496,-4.374045801526718,0.5195417602539062,-0.21068974609375,8.786720092773438,30.741764705882353
2025-10-15T20:02:17.192509,-0.44274809160305345,-6.908396946564886,-4.091603053435114,0.430956298828125,0.679953271484375,8.951920007324219,30.69470588235294
2025-10-15T20:02:17.209518,-0.030534351145038167,-8.618320610687023,-3.5419847328244276,0.20350714111328125,-0.5051765502929687,9.34696328125,30.788823529411765
2025-10-15T20:02:17.231422,-1.9541984732824427,-8.763358778625955,-4.213740458015267,0.45968671875,0.06943184814453125,9.612719665527344,30.788823529411765
2025-10-15T20:02:17.252616,0.916030534351145,-10.969465648854962,-3.954198473282443,0.6823474731445313,-0.5482721801757812,9.74200655517578,30.788823529411765
2025-10-15T20:02:17.269537,1.450381679389313,-9.717557251908397,-4.633587786259542,0.5506663818359374,0.0909796630859375,9.636661682128906,30.741764705882353
2025-10-15T20:02:17.291706,3.5343511450381677,-10.229007633587786,-5.396946564885496,0.5434837768554687,-0.3232172241210937,10.08677159423828,30.835882352941177
2025-10-15T20:02:17.313295,4.33587786259542,-10.396946564885496,-6.549618320610687,0.7326257080078125,-0.12449848632812499,9.878476049804688,30.64764705882353
2025-10-15T20:02:17.330200,6.549618320610687,-10.083969465648854,-8.030534351145038,0.5219359619140624,-0.5506663818359374,10.47702646484375,30.882941176470588
2025-10-15T20:02:17.352448,8.34351145038168,-9.007633587786259,-8.931297709923664,0.5099649536132812,-0.30406361083984373,10.462661254882812,30.741764705882353
2025-10-15T20:02:17.374124,11.419847328244275,-7.32824427480916,-10.488549618320612,0.7134720947265625,-0.38307226562499996,10.673351000976561,30.741764705882353
2025-10-15T20:02:17.391144,14.16793893129771,-6.526717557251908,-11.946564885496183,0.6727706665039062,-0.8643067993164062,10.615890161132812,30.741764705882353
2025-10-15T20:02:17.413344,16.374045801526716,-5.091603053435114,-13.244274809160306,0.9576806640625,-0.842758984375,10.752359655761719,30.741764705882353
2025-10-15T20:02:17.435461,18.931297709923665,-3.16793893129771,-14.068702290076336,0.9600748657226562,-0.7948749511718749,11.06360587158203,30.741764705882353
2025-10-15T20:02:17.452344,21.083969465648856,-0.6030534351145038,-14.641221374045802,0.7661445312499999,-0.7900865478515624,10.618284362792968,30.69470588235294
2025-10-15T20:02:17.474716,21.625954198473284,0.45038167938931295,-14.84732824427481,0.82360537109375,-0.6296750366210937,10.66137999267578,30.788823529411765
2025-10-15T20:02:17.497767,21.938931297709924,2.213740458015267,-14.419847328244275,0.9816226806640624,-0.6105214233398437,10.75714805908203,30.835882352941177
2025-10-15T20:02:17.514639,21.129770992366414,4.473282442748092,-13.687022900763358,1.5227122558593749,-0.3758896606445312,10.472238061523436,30.788823529411765
2025-10-15T20:02:17.536835,19.33587786259542,6.282442748091603,-12.82442748091603,0.9840168823242187,0.08858546142578125,10.357316381835936,30.882941176470588
2025-10-15T20:02:17.560128,17.53435114503817,8.51908396946565,-11.01526717557252,0.9840168823242187,0.047884033203124995,10.54645831298828,30.741764705882353
2025-10-15T20:02:17.576986,9.17557251908397,11.16030534351145,-8.961832061068701,1.3575123413085937,0.8810662109374999,10.474632263183594,30.69470588235294
2025-10-15T20:02:17.598565,2.984732824427481,12.732824427480915,-6.4961832061068705,1.0295067138671874,0.5889736083984375,10.407594616699217,30.741764705882353
2025-10-15T20:02:17.621643,-5.580152671755725,15.312977099236642,-3.183206106870229,0.5195417602539062,0.7852981445312499,9.311050256347656,30.835882352941177
2025-10-15T20:02:17.638514,-8.725190839694656,14.374045801526718,-1.3969465648854962,0.3327940307617187,0.488417138671875,10.223241088867187,30.64764705882353
2025-10-15T20:02:17.659427,-15.297709923664122,13.183206106870228,0.8091603053435115,0.45010991210937495,0.411802685546875,8.544905725097657,30.788823529411765
2025-10-15T20:02:17.682635,-12.106870229007633,14.702290076335878,0.3816793893129771,0.9720458740234375,2.2744915771484373,9.085995300292968,30.69470588235294
2025-10-15T20:02:17.700385,-24.572519083969464,10.198473282442748,3.1603053435114505,0.6943184814453125,-0.08858546142578125,6.4475850708007805,30.788823529411765
2025-10-15T20:02:17.720432,-19.458015267175572,13.305343511450381,2.8244274809160306,-0.6416460449218749,0.6751648681640625,8.657433203124999,30.741764705882353
2025-10-15T20:02:17.743203,-20.625954198473284,3.969465648854962,4.366412213740458,-0.6919242797851562,0.38307226562499996,6.801926916503906,30.788823529411765
2025-10-15T20:02:17.761431,-24.38167938931298,2.198473282442748,5.213740458015267,-0.19871873779296872,0.4836287353515625,7.671022119140624,30.788823529411765
2025-10-15T20:02:17.781117,-20.389312977099237,1.8702290076335877,4.312977099236641,0.13168109130859373,0.7589619262695312,8.20971749267578,30.69470588235294
2025-10-15T20:02:17.803691,-22.85496183206107,-1.3893129770992367,4.114503816793893,-0.12449848632812499,0.5698199951171875,7.939172705078125,30.741764705882353
2025-10-15T20:02:17.822309,-21.580152671755727,-3.9770992366412212,5.190839694656488,0.0526724365234375,0.2059013427734375,8.394071020507813,30.69470588235294
2025-10-15T20:02:17.841699,-24.244274809160306,-3.8396946564885495,6.030534351145038,-0.2705447875976562,-0.23223756103515625,8.073247998046874,30.788823529411765
2025-10-15T20:02:17.864597,-21.83969465648855,-4.076335877862595,5.290076335877862,0.3902548706054687,0.8810662109374999,8.212111694335936,30.788823529411765
2025-10-15T20:02:17.883655,-22.091603053435115,-5.9541984732824424,5.633587786259542,0.2154781494140625,0.1149216796875,8.985438830566405,30.741764705882353
2025-10-15T20:02:17.902388,-19.625954198473284,-6.564885496183206,5.297709923664122,0.3854664672851562,0.6631938598632812,9.167398156738281,30.741764705882353
2025-10-15T20:02:17.924773,-23.419847328244273,-8.114503816793894,4.8320610687022905,0.07422025146484375,0.7709329345703124,8.805873706054687,30.788823529411765
2025-10-15T20:02:17.944264,-27.580152671755727,-11.442748091603054,3.6412213740458017,0.16759411621093748,1.2306196533203124,6.1842228881835934,30.835882352941177
2025-10-15T20:02:17.962473,-30.641221374045802,-20.282442748091604,2.5572519083969465,-0.055066638183593745,0.6871358764648438,7.572859851074218,30.741764705882353
2025-10-15T20:02:17.984815,-24.34351145038168,-18.564885496183205,1.5267175572519085,0.70868369140625,-0.28490999755859375,11.142614526367186,30.69470588235294
2025-10-15T20:02:18.005143,-22.366412213740457,-14.435114503816793,-0.5801526717557252,0.46208092041015625,0.23702596435546874,10.156203442382813,30.835882352941177
2025-10-15T20:02:18.022524,-11.007633587786259,-8.045801526717558,-3.1755725190839694,0.6488286499023437,-0.82360537109375,11.075576879882812,30.788823529411765
2025-10-15T20:02:18.044640,-10.961832061068701,-7.908396946564886,-4.030534351145038,0.38307226562499996,-0.07900865478515624,9.74200655517578,30.788823529411765
2025-10-15T20:02:18.065817,-3.1526717557251906,-10.114503816793894,-6.709923664122138,0.6679822631835937,-0.7876923461914062,10.773907470703124,30.69470588235294
2025-10-15T20:02:18.082758,-1.702290076335878,-6.67175572519084,-5.931297709923665,1.2497732666015624,-0.430956298828125,10.94868419189453,30.741764705882353
2025-10-15T20:02:18.104693,5.702290076335878,-0.4961832061068702,-10.145038167938932,1.0773907470703123,-1.0342951171875,10.716446630859375,30.69470588235294
2025-10-15T20:02:18.126715,9.801526717557252,1.1221374045801527,-11.564885496183207,0.8116343627929687,-0.6081272216796875,10.845733520507812,30.741764705882353
2025-10-15T20:02:18.143721,14.061068702290076,3.8396946564885495,-12.84732824427481,1.0726023437499999,-0.8164227661132812,10.536881506347656,30.741764705882353
2025-10-15T20:02:18.165584,19.16793893129771,2.4427480916030535,-13.854961832061068,0.9552864624023437,-0.948103857421875,11.03248125,30.788823529411765
2025-10-15T20:02:18.188031,22.641221374045802,8.908396946564885,-15.114503816793894,0.97683427734375,-0.6344634399414062,10.656591589355468,30.835882352941177
2025-10-15T20:02:18.204999,29.6793893129771,11.320610687022901,-15.541984732824428,0.8714894042968749,-1.0726023437499999,10.654197387695312,30.788823529411765
2025-10-15T20:02:18.227038,30.84732824427481,11.511450381679388,-16.045801526717558,0.6272808349609375,-0.8906430175781249,10.206481677246094,30.741764705882353
2025-10-15T20:02:18.250273,31.916030534351144,16.48854961832061,-16.99236641221374,0.5434837768554687,-1.0510545288085937,9.447519750976562,30.64764705882353
2025-10-15T20:02:18.267220,37.16030534351145,15.17557251908397,-16.984732824427482,0.6200982299804687,-0.8858546142578124,9.904812268066406,30.741764705882353
2025-10-15T20:02:18.288860,40.18320610687023,14.007633587786259,-16.755725190839694,0.7757213378906249,-0.5913678100585937,9.624690673828125,30.741764705882353
2025-10-15T20:02:18.312065,42.80152671755725,16.389312977099237,-17.0,0.8403647827148437,-0.4836287353515625,9.713276135253906,30.741764705882353
2025-10-15T20:02:18.329435,43.282442748091604,15.419847328244275,-16.396946564885496,0.5961562133789062,-0.4477157104492187,9.009380847167968,30.788823529411765
2025-10-15T20:02:18.349880,44.93129770992366,15.091603053435115,-15.465648854961833,0.6847416748046875,-0.1005564697265625,8.734047656249999,30.788823529411765
2025-10-15T20:02:18.372813,41.54961832061068,12.450381679389313,-14.267175572519085,0.7206546997070312,0.22505495605468748,8.398859423828124,30.741764705882353
2025-10-15T20:02:18.391015,39.14503816793893,10.83969465648855,-12.923664122137405,0.41419688720703124,0.3112462158203125,8.731653454589843,30.788823529411765
2025-10-15T20:02:18.410415,37.10687022900763,8.19083969465649,-11.15267175572519,0.19393033447265623,0.5506663818359374,8.573636145019531,30.69470588235294
2025-10-15T20:02:18.433081,28.82442748091603,6.3893129770992365,-9.083969465648854,0.09337386474609374,0.8762778076171874,8.221688500976562,30.788823529411765
2025-10-15T20:02:18.452124,19.633587786259543,4.305343511450381,-6.244274809160306,0.3902548706054687,1.2401964599609374,8.410830432128906,30.835882352941177
2025-10-15T20:02:18.470698,9.969465648854962,2.618320610687023,-3.4198473282442747,0.35673604736328124,1.4173673828125,8.82263311767578,30.835882352941177
2025-10-15T20:02:18.493093,-2.099236641221374,1.0458015267175573,0.7099236641221374,0.7110778930664062,2.212242333984375,8.588001354980468,30.835882352941177
2025-10-15T20:02:18.512957,-22.083969465648856,0.732824427480916,5.801526717557252,0.00718260498046875,2.6336218261718747,8.506598498535157,30.788823529411765
2025-10-15T20:02:18.530908,-31.282442748091604,-3.282442748091603,7.763358778625954,0.5530605834960938,0.02633621826171875,7.874529260253905,30.788823529411765
2025-10-15T20:02:18.552961,-39.19847328244275,-5.549618320610687,7.038167938931298,0.258573779296875,2.0302830078125,7.058106494140625,30.741764705882353
2025-10-15T20:02:18.573702,-52.74809160305343,-7.259541984732825,12.114503816793894,1.2593500732421874,1.4963760375976562,8.149862451171874,30.788823529411765
2025-10-15T20:02:18.590804,-47.61832061068702,-4.083969465648855,11.648854961832061,2.195482922363281,2.133233679199219,8.52335791015625,30.788823529411765
2025-10-15T20:02:18.612769,-56.30534351145038,-12.34351145038168,12.458015267175572,1.199495031738281,-2.0542250244140625,8.755595471191405,30.741764705882353
2025-10-15T20:02:18.635287,-56.31297709923664,-9.732824427480915,9.335877862595419,0.9576806640625,-0.14604630126953125,8.762778076171875,30.741764705882353
2025-10-15T20:02:18.653176,-60.29007633587786,-13.236641221374045,10.877862595419847,-1.0319009155273438,-1.3527239379882812,7.9463553100585935,30.788823529411765
2025-10-15T20:02:18.677426,-48.83969465648855,-22.099236641221374,7.297709923664122,-0.7733271362304687,-0.55545478515625,8.200140686035155,30.835882352941177
2025-10-15T20:02:18.698972,-42.595419847328245,-23.96946564885496,6.083969465648855,-0.033518823242187495,-0.229843359375,10.295067138671874,30.788823529411765
2025-10-15T20:02:18.716981,-25.801526717557252,-21.69465648854962,1.251908396946565,-0.7613561279296874,-0.8738836059570312,9.397241516113281,30.741764705882353
2025-10-15T20:02:18.739192,-22.31297709923664,-18.946564885496183,-0.5038167938931297,0.4525041137695312,-0.033518823242187495,8.468291271972657,30.741764705882353
2025-10-15T20:02:18.759610,-11.206106870229007,-22.47328244274809,-4.076335877862595,0.584185205078125,-0.4381389038085937,9.713276135253906,30.741764705882353
2025-10-15T20:02:18.777177,-5.923664122137405,-19.206106870229007,-6.175572519083969,-0.2346317626953125,0.3064578125,10.357316381835936,30.741764705882353
2025-10-15T20:02:18.799654,3.5114503816793894,-14.511450381679388,-8.49618320610687,1.4508862060546874,1.8459294799804686,10.58476553955078,30.788823529411765
2025-10-15T20:02:18.821000,-11.511450381679388,-14.129770992366412,-5.625954198473282,0.718260498046875,1.1707646118164061,9.526528405761718,30.741764705882353
2025-10-15T20:02:18.837910,-6.801526717557252,-10.778625954198473,-7.358778625954199,1.7812860351562498,1.9967641845703124,11.200075366210937,30.69470588235294
2025-10-15T20:02:18.860476,-16.229007633587788,-8.86259541984733,-6.297709923664122,-0.055066638183593745,-1.0175357055664063,8.930372192382812,30.741764705882353
2025-10-15T20:02:18.882707,0.8625954198473282,3.435114503816794,-10.01526717557252,-1.199495031738281,-1.5466542724609373,9.974244116210937,30.788823529411765
2025-10-15T20:02:18.899629,2.8625954198473282,-2.068702290076336,-9.045801526717558,-1.2521674682617188,-0.2154781494140625,8.030152368164062,30.741764705882353
2025-10-15T20:02:18.922198,13.34351145038168,-1.2213740458015268,-11.396946564885496,3.4069489624023435,1.350329736328125,11.611878051757811,30.788823529411765
2025-10-15T20:02:18.945334,-4.770992366412214,6.4961832061068705,-7.717557251908397,2.2673089721679687,-0.852335791015625,8.470685473632813,30.69470588235294
2025-10-15T20:02:18.962226,12.67175572519084,13.900763358778626,-7.366412213740458,1.2713210815429687,0.29927520751953124,12.782642663574219,30.741764705882353
2025-10-15T20:02:18.984707,-1.549618320610687,14.404580152671755,-6.625954198473282,1.0630255371093749,-0.42377369384765623,8.896853369140624,30.788823529411765
2025-10-15T20:02:19.008172,15.625954198473282,14.900763358778626,-6.709923664122138,1.1468225952148436,-1.618480322265625,11.374852087402344,30.788823529411765
2025-10-15T20:02:19.025132,10.15267175572519,19.96946564885496,-6.519083969465649,1.01514150390625,-0.411802685546875,8.568847741699217,30.69470588235294
2025-10-15T20:02:19.046170,24.389312977099237,19.099236641221374,-6.137404580152672,0.5267243652343749,-1.1372457885742187,9.785102185058593,30.741764705882353
2025-10-15T20:02:19.069357,15.541984732824428,16.229007633587788,-3.9770992366412212,0.3711012573242187,-0.00718260498046875,9.330203869628905,30.835882352941177
2025-10-15T20:02:19.087263,21.9618320610687,18.49618320610687,-6.648854961832061,1.0606313354492187,-1.8076222534179687,10.675745202636719,30.69470588235294
2025-10-15T20:02:19.107207,17.282442748091604,22.984732824427482,-4.465648854961832,0.5291185668945312,0.2705447875976562,9.315838659667968,30.788823529411765
2025-10-15T20:02:19.129895,21.34351145038168,19.625954198473284,-4.0458015267175576,0.70868369140625,-0.0718260498046875,9.674968908691406,30.788823529411765
2025-10-15T20:02:19.148131,13.51908396946565,17.83206106870229,-2.33587786259542,0.9696516723632812,0.2753331909179687,9.789890588378906,30.788823529411765
2025-10-15T20:02:19.167615,5.877862595419847,18.297709923664122,-2.0381679389312977,0.5482721801757812,0.011971008300781249,10.149020837402343,30.69470588235294
2025-10-15T20:02:19.190302,6.145038167938932,20.66412213740458,-0.3282442748091603,1.458068811035156,-0.2059013427734375,9.33978067626953,30.741764705882353
2025-10-15T20:02:19.209366,7.374045801526718,15.938931297709924,-1.1145038167938932,0.6392518432617187,-0.12689268798828124,8.374917407226562,30.835882352941177
2025-10-15T20:02:19.228075,10.213740458015268,15.106870229007633,-0.21374045801526717,-0.28012159423828126,0.3184288208007812,9.550470422363281,30.741764705882353
2025-10-15T20:02:19.250513,8.610687022900763,15.198473282442748,-0.007633587786259542,0.33758243408203126,0.201112939453125,7.888894470214844,30.741764705882353
2025-10-15T20:02:19.270415,7.145038167938932,11.86259541984733,-0.5877862595419847,0.7565677246093749,-0.47644613037109373,9.129090930175781,30.741764705882353
2025-10-15T20:02:19.288247,0.7251908396946565,8.007633587786259,-1.8931297709923665,0.5602431884765625,0.3184288208007812,8.037334973144532,30.788823529411765
2025-10-15T20:02:19.310437,1.3129770992366412,8.076335877862595,-1.015267175572519,-0.26336218261718747,0.07422025146484375,9.014169250488282,30.788823529411765
2025-10-15T20:02:19.331194,-6.091603053435114,3.7786259541984735,-1.4274809160305344,0.41419688720703124,0.8930372192382812,7.577648254394531,30.741764705882353
2025-10-15T20:02:19.348217,-5.908396946564886,0.0916030534351145,0.1984732824427481,0.1005564697265625,0.17238251953125,8.432378247070313,30.741764705882353
2025-10-15T20:02:19.370656,-14.335877862595419,-5.33587786259542,0.1984732824427481,0.5746083984375,1.7549498168945312,7.9846625366210935,30.741764705882353
2025-10-15T20:02:19.392264,-16.633587786259543,-9.885496183206106,0.11450381679389313,-3.189076611328125,-0.25139117431640623,6.8569935546875,30.741764705882353
2025-10-15T20:02:19.409210,-18.946564885496183,-15.908396946564885,1.1221374045801527,0.8595183959960937,3.0933085449218747,7.857769848632812,30.788823529411765
2025-10-15T20:02:19.431222,-25.69465648854962,-15.274809160305344,2.2748091603053435,0.8834604125976562,0.8738836059570312,8.104372619628906,30.835882352941177
2025-10-15T20:02:19.453251,-26.419847328244273,-21.633587786259543,2.7786259541984735,0.062249243164062495,0.7852981445312499,8.549694128417968,30.69470588235294
2025-10-15T20:02:19.470199,-27.69465648854962,-24.984732824427482,3.7480916030534353,-0.5626373901367188,-0.076614453125,8.84178673095703,30.741764705882353
2025-10-15T20:02:19.492300,-25.412213740458014,-23.259541984732824,1.1145038167938932,0.4860229370117187,-0.5386953735351562,9.612719665527344,30.835882352941177
2025-10-15T20:02:19.514762,-27.137404580152673,-24.3206106870229,-0.916030534351145,0.5027823486328125,-0.5674257934570313,7.556100439453124,30.69470588235294
2025-10-15T20:02:19.531754,-12.916030534351146,-27.244274809160306,-1.3969465648854962,1.0558429321289062,-0.488417138671875,8.480262280273436,30.69470588235294
2025-10-15T20:02:19.553656,-13.34351145038168,-29.251908396946565,-2.519083969465649,0.08379705810546874,-0.30406361083984373,8.578424548339843,30.835882352941177
2025-10-15T20:02:19.576858,0.6183206106870229,-25.47328244274809,-3.236641221374046,1.1252747802734375,-0.12689268798828124,10.034099157714843,30.882941176470588
2025-10-15T20:02:19.593864,3.1068702290076335,-19.603053435114504,-3.801526717557252,1.5586252807617187,1.68551796875,11.054029064941405,30.69470588235294
2025-10-15T20:02:19.615413,15.007633587786259,-30.221374045801525,-4.0,3.833116857910156,2.4899697265625,11.1474029296875,30.835882352941177
2025-10-15T20:02:19.638710,-12.770992366412214,-14.320610687022901,3.0916030534351147,0.07900865478515624,-1.0558429321289062,10.287884533691406,30.69470588235294
2025-10-15T20:02:19.656054,-1.9618320610687023,-9.366412213740459,0.7862595419847328,0.8212111694335937,1.5370774658203123,9.574412438964844,30.835882352941177
2025-10-15T20:02:19.676328,-10.51908396946565,-2.3969465648854964,4.9465648854961835,0.9911994873046874,-0.7613561279296874,11.336544860839844,30.788823529411765
2025-10-15T20:02:19.699310,-11.221374045801527,3.145038167938931,3.3893129770992365,1.2689268798828124,-0.028730419921875,10.579977136230468,30.788823529411765
2025-10-15T20:02:19.717201,-9.145038167938932,1.1450381679389312,5.473282442748092,1.0821791503906248,-0.45968671875,10.63025537109375,30.788823529411765
2025-10-15T20:02:19.738211,-6.572519083969466,8.282442748091603,5.267175572519084,-0.19871873779296872,0.13168109130859373,9.320627062988281,30.741764705882353
2025-10-15T20:02:19.761240,3.6412213740458017,10.648854961832061,4.641221374045801,1.4532804077148436,-0.055066638183593745,11.077971081542968,30.835882352941177
2025-10-15T20:02:19.779055,2.5114503816793894,15.061068702290076,2.9770992366412212,-0.1867477294921875,-0.7517793212890624,10.620678564453124,30.788823529411765
2025-10-15T20:02:19.799183,6.015267175572519,13.931297709923664,2.954198473282443,1.7190367919921874,-1.2832920898437499,10.556035119628906,30.741764705882353
2025-10-15T20:02:19.821836,11.50381679389313,16.572519083969464,-0.10687022900763359,0.7876923461914062,-0.5386953735351562,9.792284790039062,30.741764705882353
2025-10-15T20:02:19.840060,20.083969465648856,22.0,-2.351145038167939,0.07900865478515624,-0.9026140258789062,10.637437976074217,30.741764705882353
2025-10-15T20:02:19.859552,23.564885496183205,21.16793893129771,-5.709923664122138,0.507570751953125,-0.5817910034179687,9.557653027343749,30.788823529411765
2025-10-15T20:02:19.882277,24.786259541984734,20.49618320610687,-6.7251908396946565,0.7733271362304687,-0.4285620971679687,9.986215124511718,30.69470588235294
2025-10-15T20:02:19.901313,26.541984732824428,18.84732824427481,-9.404580152671755,0.40222587890625,0.10295067138671875,10.211270080566406,30.835882352941177
2025-10-15T20:02:19.920046,24.46564885496183,22.129770992366414,-7.908396946564886,0.3495534423828125,-0.3806780639648437,8.678981018066406,30.741764705882353
2025-10-15T20:02:19.942494,22.015267175572518,18.625954198473284,-10.473282442748092,1.120486376953125,-0.21787235107421873,9.011775048828124,30.741764705882353
2025-10-15T20:02:19.962397,20.732824427480917,15.251908396946565,-9.916030534351146,0.4908113403320312,0.13407529296874998,9.13627353515625,30.835882352941177
2025-10-15T20:02:19.980229,17.083969465648856,16.16793893129771,-10.427480916030534,0.45489831542968745,0.35194764404296874,8.264784130859374,30.788823529411765
2025-10-15T20:02:20.002424,13.870229007633588,9.977099236641221,-10.450381679389313,0.55545478515625,0.00239420166015625,8.700528833007812,30.788823529411765
2025-10-15T20:02:20.025963,8.687022900763358,7.564885496183206,-10.290076335877863,1.2713210815429687,0.833182177734375,8.497021691894531,30.741764705882353
2025-10-15T20:02:20.044478,0.5572519083969466,6.969465648854962,-9.213740458015268,-0.0143652099609375,0.28730419921875,8.389282617187499,30.741764705882353
2025-10-15T20:02:20.066648,-6.4961832061068705,2.6030534351145036,-7.297709923664122,-0.0718260498046875,1.3144167114257812,7.9295958984374995,30.741764705882353
2025-10-15T20:02:20.088652,-11.755725190839694,-0.7404580152671756,-5.694656488549619,0.15083470458984374,0.7948749511718749,8.51617530517578,30.69470588235294
2025-10-15T20:02:20.105539,-14.16793893129771,-1.9923664122137406,-5.0,0.6655880615234374,0.3495534423828125,8.872911352539061,30.741764705882353
2025-10-15T20:02:20.127677,-19.923664122137403,-3.8473282442748094,-3.435114503816794,2.24097275390625,1.1420341918945311,8.02536396484375,30.835882352941177
2025-10-15T20:02:20.148840,-21.984732824427482,-12.15267175572519,-3.49618320610687,2.559401574707031,0.35673604736328124,9.241618408203124,30.741764705882353
2025-10-15T20:02:20.165844,-27.14503816793893,-15.709923664122137,1.8244274809160306,-0.39983167724609375,2.2936451904296873,7.9655089233398435,30.64764705882353
2025-10-15T20:02:20.187748,-27.396946564885496,-17.580152671755727,-0.04580152671755725,2.138022082519531,-0.32561142578124996,9.102754711914063,30.741764705882353
2025-10-15T20:02:20.209340,-31.3206106870229,-25.900763358778626,0.9312977099236641,2.379836450195312,-0.031124621582031248,10.903194360351561,30.69470588235294
2025-10-15T20:02:20.226605,-28.580152671755727,-26.17557251908397,1.2366412213740459,0.9552864624023437,0.3950432739257812,9.983820922851562,30.741764705882353
2025-10-15T20:02:20.248539,-23.755725190839694,-16.557251908396946,0.25190839694656486,0.3016694091796875,-1.2761094848632812,9.68454571533203,30.741764705882353
2025-10-15T20:02:20.269316,-24.213740458015266,-19.916030534351144,1.2671755725190839,1.0534487304687499,-0.16519991455078123,9.440337145996093,30.835882352941177
2025-10-15T20:02:20.286324,-17.87786259541985,-19.83206106870229,1.5038167938931297,0.19153613281249998,-0.07900865478515624,9.94072529296875,30.741764705882353
2025-10-15T20:02:20.308520,-15.83969465648855,-17.580152671755727,0.19083969465648856,0.6560112548828124,-0.5291185668945312,10.670956799316405,30.741764705882353
2025-10-15T20:02:20.330783,-9.679389312977099,-8.419847328244275,-0.8625954198473282,0.9074024291992187,2.0446482177734375,10.259154113769531,30.835882352941177
2025-10-15T20:02:20.347783,-7.709923664122138,-8.83206106870229,-2.3893129770992365,1.5586252807617187,-0.143652099609375,8.954314208984375,30.741764705882353
2025-10-15T20:02:20.369743,-6.122137404580153,-11.16030534351145,-2.1374045801526718,1.005564697265625,-0.5817910034179687,10.05564697265625,30.835882352941177
2025-10-15T20:02:20.392619,-6.038167938931298,-4.282442748091603,-1.4045801526717556,1.2976572998046874,0.1580173095703125,10.857704528808593,30.835882352941177
2025-10-15T20:02:20.409578,-7.0534351145038165,5.068702290076335,-2.122137404580153,1.1540052001953125,0.1484405029296875,10.345345373535155,30.69470588235294
2025-10-15T20:02:20.431799,-5.763358778625954,1.717557251908397,-0.17557251908396945,0.6751648681640625,0.06943184814453125,9.595960253906249,30.741764705882353
2025-10-15T20:02:20.455012,-3.9923664122137406,1.916030534351145,-2.946564885496183,0.5817910034179687,-0.13168109130859373,10.158597644042969,30.741764705882353
2025-10-15T20:02:20.471910,0.549618320610687,7.9465648854961835,-2.015267175572519,1.1156979736328125,0.062249243164062495,10.330980163574218,30.835882352941177
2025-10-15T20:02:20.494014,2.045801526717557,10.335877862595419,-5.206106870229007,0.8667010009765624,-0.4477157104492187,9.143456140136719,30.788823529411765
2025-10-15T20:02:20.516908,5.740458015267175,7.083969465648855,-6.137404580152672,-0.16041151123046873,-0.277727392578125,10.005368737792969,30.882941176470588
2025-10-15T20:02:20.533966,7.450381679389313,5.969465648854962,-6.465648854961832,1.3527239379882812,-0.27293898925781246,9.70369932861328,30.835882352941177
2025-10-15T20:02:20.555720,11.458015267175572,13.007633587786259,-9.65648854961832,-1.0319009155273438,-2.2361843505859373,9.49300958251953,30.835882352941177
2025-10-15T20:02:20.579004,10.51908396946565,10.427480916030534,-4.900763358778626,-3.612850305175781,3.797203833007812,9.272743029785156,30.788823529411765
2025-10-15T20:02:20.596021,21.221374045801525,7.870229007633588,-12.129770992366412,-4.42448466796875,0.033518823242187495,9.938331091308592,30.69470588235294
2025-10-15T20:02:20.616762,18.389312977099237,12.427480916030534,-11.557251908396946,0.5506663818359374,-0.13168109130859373,10.78348427734375,30.741764705882353
2025-10-15T20:02:20.639764,15.358778625954198,12.236641221374045,-11.65648854961832,1.2952630981445312,0.8283937744140625,10.292672937011718,30.69470588235294
2025-10-15T20:02:20.657163,4.419847328244275,9.916030534351146,-6.3893129770992365,0.6296750366210937,-0.03591302490234375,9.734823950195311,30.741764705882353
2025-10-15T20:02:20.677515,0.12213740458015267,10.938931297709924,-6.66412213740458,0.02633621826171875,0.086191259765625,9.380482104492186,30.788823529411765
2025-10-15T20:02:20.700484,-0.1297709923664122,8.679389312977099,-4.251908396946565,0.0909796630859375,-1.5418658691406248,8.815450512695312,30.835882352941177
2025-10-15T20:02:20.718286,8.320610687022901,8.374045801526718,-7.908396946564886,0.5003881469726562,-0.7230489013671875,8.473079675292968,30.741764705882353
2025-10-15T20:02:20.738286,9.877862595419847,5.465648854961832,-7.343511450381679,-1.2114660400390624,-1.7669208251953124,8.528146313476562,30.882941176470588
2025-10-15T20:02:20.761178,17.61832061068702,2.3893129770992365,-10.664122137404581,1.7884686401367187,-0.4165910888671875,10.376469995117187,30.788823529411765
2025-10-15T20:02:20.779002,20.34351145038168,6.198473282442748,-11.01526717557252,-1.0941501586914062,-1.3934253662109375,8.291120349121094,30.741764705882353
